File: Data/Materials_HUB_Synchrotron_XRD/314MA_re_OYJ_XRD.xy
10.00000 5579.900
10.10000 5449.600
10.20000 5446.200
10.30000 5161.900
10.40000 5131.100
10.50000 5067.900
10.60000 4928.900
10.70000 4882.000
10.80000 4678.500
10.90000 4403.900
11.00000 4481.900
11.10000 4275.200
11.20000 4307.800
11.30000 4165.100
11.40000 3932.100
11.50000 3947.100
11.60000 3781.300
11.70000 3878.500
11.80000 3624.600
11.90000 3729.200
12.00000 3680.600
12.10000 3578.900
12.20000 3379.100
12.30000 3584.300
12.40000 3509.900
12.50000 3361.500
12.60000 3289.600
12.70000 3358.100
12.80000 3288.300
12.90000 3293.400
13.00000 3137.600
13.10000 3195.900
13.20000 3164.200
13.30000 3076.000
13.40000 3068.300
13.50000 3082.200
13.60000 3132.300
13.70000 3767.600
13.80000 3437.200
13.90000 3290.200
14.00000 3105.800
14.10000 2956.400
14.20000 3102.000
14.30000 3103.900
14.40000 2937.300
14.50000 3043.400
14.60000 3000.800
14.70000 3083.900
14.80000 3010.400
14.90000 3103.200
15.00000 3065.300
15.10000 3116.100
15.20000 2950.200
15.30000 3160.400
15.40000 3258.100
15.50000 3209.100
15.60000 3211.900
15.70000 3210.700
15.80000 3360.600
15.90000 3276.900
16.00000 3396.700
16.10000 3378.900
16.20000 3399.400
16.30000 3527.100
16.40000 3445.500
16.50000 3417.600
16.60000 3541.200
16.70000 3692.700
16.80000 3677.100
16.90000 3857.100
17.00000 3712.700
17.10000 3752.100
17.20000 3825.300
17.30000 3964.400
17.40000 4517.600
17.50000 5565.900
17.60000 7756.200
17.70000 6775.000
17.80000 5492.800
17.90000 4950.300
18.00000 5045.300
18.10000 5785.900
18.20000 6902.700
18.30000 5797.300
18.40000 5009.100
18.50000 4605.700
18.60000 4627.400
18.70000 4664.500
18.80000 4366.500
18.90000 4434.600
19.00000 4202.500
19.10000 4473.400
19.20000 4270.000
19.30000 4362.000
19.40000 4465.800
19.50000 4444.100
19.60000 4556.800
19.70000 4479.800
19.80000 4539.500
19.90000 4816.100
20.00000 4974.200
20.10000 4803.700
20.20000 4242.400
20.30000 4111.600
20.40000 4111.900
20.50000 4017.500
20.60000 3950.100
20.70000 3684.900
20.80000 3641.100
20.90000 3649.400
21.00000 3608.600
21.10000 3561.000
21.20000 3481.400
21.30000 3307.200
21.40000 3292.500
21.50000 3303.700
21.60000 3027.400
21.70000 3143.500
21.80000 3188.000
21.90000 3060.900
22.00000 2988.300
22.10000 3009.500
22.20000 2905.700
22.30000 2708.800
22.40000 2714.000
22.50000 2627.400
22.60000 2603.000
22.70000 2675.100
22.80000 2758.700
22.90000 2821.500
23.00000 2629.900
23.10000 2411.400
23.20000 2346.700
23.30000 2148.600
23.40000 2070.900
23.50000 2160.400
23.60000 2109.800
23.70000 2028.300
23.80000 1971.300
23.90000 1975.000
24.00000 1934.500
24.10000 1851.600
24.20000 1874.400
24.30000 1847.700
24.40000 1774.700
24.50000 1765.600
24.60000 1684.200
24.70000 1709.500
24.80000 1604.300
24.90000 1664.300
25.00000 1622.700
25.10000 1591.300
25.20000 1631.400
25.30000 1624.200
25.40000 1640.800
25.50000 1688.800
25.60000 1673.500
25.70000 1747.900
25.80000 1959.200
25.90000 2460.700
26.00000 3211.900
26.10000 3130.000
26.20000 2590.000
26.30000 2221.200
26.40000 1984.500
26.50000 1806.700
26.60000 1722.300
26.70000 1677.400
26.80000 1636.400
26.90000 1589.000
27.00000 1598.100
27.10000 1660.000
27.20000 1742.700
27.30000 1811.300
27.40000 1893.700
27.50000 2266.100
27.60000 2663.700
27.70000 2501.400
27.80000 2359.800
27.90000 1919.500
28.00000 1649.400
28.10000 1509.700
28.20000 1567.100
28.30000 1365.300
28.40000 1445.700
28.50000 1333.300
28.60000 1307.100
28.70000 1366.100
28.80000 1383.300
28.90000 1586.700
29.00000 1908.200
29.10000 2861.000
29.20000 3447.300
29.30000 3138.200
29.40000 2291.700
29.50000 1998.100
29.60000 1940.000
29.70000 2340.600
29.80000 3039.800
29.90000 3946.600
30.00000 3769.200
30.10000 2712.600
30.20000 2164.700
30.30000 1709.900
30.40000 1486.100
30.50000 1418.000
30.60000 1244.000
30.70000 1198.000
30.80000 1227.200
30.90000 1259.500
31.00000 1280.700
31.10000 1284.300
31.20000 1628.600
31.30000 1879.000
31.40000 1814.600
31.50000 1669.200
31.60000 1383.800
31.70000 1200.800
31.80000 1054.200
31.90000 1039.600
32.00000 1084.600
32.10000 976.800
32.20000 988.800
32.30000 988.500
32.40000 952.000
32.50000 932.900
32.60000 916.400
32.70000 922.800
32.80000 960.800
32.90000 911.200
33.00000 900.500
33.10000 870.600
33.20000 871.800
33.30000 820.900
33.40000 818.400
33.50000 862.600
33.60000 855.300
33.70000 807.200
33.80000 842.200
33.90000 859.400
34.00000 825.300
34.10000 879.000
34.20000 908.400
34.30000 935.200
34.40000 898.300
34.50000 861.700
34.60000 784.000
34.70000 787.900
34.80000 817.300
34.90000 733.200
35.00000 783.500
35.10000 756.700
35.20000 752.600
35.30000 720.000
35.40000 716.000
35.50000 733.100
35.60000 648.400
35.70000 661.800
35.80000 699.800
35.90000 703.100
36.00000 678.500
36.10000 645.100
36.20000 640.400
36.30000 686.700
36.40000 699.700
36.50000 654.200
36.60000 611.000
36.70000 634.700
36.80000 697.300
36.90000 647.600
37.00000 680.600
37.10000 677.100
37.20000 643.900
37.30000 686.400
37.40000 691.300
37.50000 722.700
37.60000 644.700
37.70000 644.500
37.80000 565.800
37.90000 547.200
38.00000 575.800
38.10000 541.100
38.20000 544.600
38.30000 576.700
38.40000 511.400
38.50000 527.700
38.60000 559.400
38.70000 496.000
38.80000 589.000
38.90000 634.400
39.00000 750.300
39.10000 836.700
39.20000 815.700
39.30000 886.200
39.40000 927.900
39.50000 1002.400
39.60000 973.400
39.70000 843.700
39.80000 700.400
39.90000 656.000
40.00000 566.900
40.10000 511.300
40.20000 567.300
40.30000 493.500
40.40000 474.200
40.50000 613.400
40.60000 725.200
40.70000 669.500
40.80000 633.700
40.90000 534.400
41.00000 487.100
41.10000 402.500
41.20000 421.700
41.30000 412.000
41.40000 385.400
41.50000 375.600
41.60000 361.800
41.70000 383.900
41.80000 372.400
41.90000 380.100
42.00000 443.500
42.10000 465.200
42.20000 465.100
42.30000 430.200
42.40000 433.200
42.50000 387.700
42.60000 365.500
42.70000 333.900
42.80000 334.200
42.90000 337.600
43.00000 356.600
43.10000 380.000
43.20000 412.800
43.30000 369.900
43.40000 438.000
43.50000 511.100
43.60000 543.200
43.70000 521.100
43.80000 470.800
43.90000 426.400
44.00000 420.800
44.10000 419.600
44.20000 436.900
44.30000 468.200
44.40000 459.700
44.50000 491.800
44.60000 561.700
44.70000 619.600
44.80000 651.400
44.90000 661.300
45.00000 565.300
45.10000 573.600
45.20000 486.900
45.30000 447.600
45.40000 381.000
45.50000 414.800
45.60000 405.900
45.70000 408.400
45.80000 412.500
45.90000 474.000
46.00000 485.100
46.10000 434.600
46.20000 522.400
46.30000 547.900
46.40000 597.800
46.50000 575.400
46.60000 528.700
46.70000 503.300
46.80000 528.100
46.90000 458.500
47.00000 492.400
47.10000 472.500
47.20000 465.200
47.30000 402.900
47.40000 391.900
47.50000 433.500
47.60000 463.800
47.70000 646.400
47.80000 849.400
47.90000 1098.500
48.00000 1089.700
48.10000 920.500
48.20000 808.600
48.30000 684.900
48.40000 528.000
48.50000 450.700
48.60000 359.100
48.70000 371.200
48.80000 312.000
48.90000 317.800
49.00000 338.500
49.10000 284.500
49.20000 271.500
49.30000 297.800
49.40000 260.900
49.50000 279.600
49.60000 296.700
49.70000 278.700
49.80000 257.500
49.90000 338.000
50.00000 305.000
50.10000 335.600
50.20000 354.400
50.30000 376.300
50.40000 464.600
50.50000 474.100
50.60000 492.200
50.70000 469.300
50.80000 448.100
50.90000 448.500
51.00000 373.000
51.10000 358.300
51.20000 301.500
51.30000 300.400
51.40000 322.800
51.50000 323.300
51.60000 303.700
51.70000 328.700
51.80000 343.100
51.90000 412.900
52.00000 435.900
52.10000 560.800
52.20000 619.600
52.30000 650.400
52.40000 606.200
52.50000 566.400
52.60000 529.600
52.70000 465.500
52.80000 474.300
52.90000 497.300
53.00000 510.600
53.10000 625.300
53.20000 628.800
53.30000 566.900
53.40000 602.400
53.50000 540.500
53.60000 524.900
53.70000 487.900
53.80000 424.900
53.90000 403.600
54.00000 455.300
54.10000 449.200
54.20000 450.800
54.30000 468.400
54.40000 488.600
54.50000 529.300
54.60000 504.700
54.70000 480.600
54.80000 437.300
54.90000 434.400
55.00000 369.400
55.10000 366.100
55.20000 363.300
55.30000 351.600
55.40000 333.200
55.50000 315.600
55.60000 365.900
55.70000 375.800
55.80000 364.500
55.90000 384.800
56.00000 373.900
56.10000 335.700
56.20000 345.400
56.30000 351.600
56.40000 374.800
56.50000 418.400
56.60000 449.400
56.70000 558.200
56.80000 676.400
56.90000 791.100
57.00000 915.300
57.10000 929.600
57.20000 853.800
57.30000 726.200
57.40000 676.400
57.50000 546.600
57.60000 480.800
57.70000 447.400
57.80000 473.900
57.90000 397.200
58.00000 423.800
58.10000 405.300
58.20000 399.600
58.30000 399.700
58.40000 424.300
58.50000 425.500
58.60000 431.900
58.70000 471.500
58.80000 454.400
58.90000 494.000
59.00000 453.400
59.10000 476.600
59.20000 503.400
59.30000 426.300
59.40000 436.000
59.50000 407.000
59.60000 348.000
59.70000 374.400
59.80000 306.600
59.90000 334.700
60.00000 326.300
60.10000 352.800
60.20000 356.300
60.30000 384.100
60.40000 381.500
60.50000 412.300
60.60000 364.600
60.70000 381.400
60.80000 411.100
60.90000 414.000
61.00000 390.000
61.10000 343.100
61.20000 333.200
61.30000 315.600
61.40000 307.400
61.50000 294.600
61.60000 310.100
61.70000 286.600
61.80000 308.600
61.90000 335.500
62.00000 360.100
62.10000 373.600
62.20000 360.600
62.30000 347.100
62.40000 339.400
62.50000 345.700
62.60000 329.400
62.70000 295.800
62.80000 288.600
62.90000 341.200
63.00000 334.600
63.10000 298.700
63.20000 339.800
63.30000 317.300
63.40000 336.400
63.50000 319.200
63.60000 349.200
63.70000 321.400
63.80000 320.900
63.90000 344.700
64.00000 349.900
64.10000 317.300
64.20000 339.600
64.30000 338.700
64.40000 268.500
64.50000 271.100
64.60000 277.800
64.70000 274.600
64.80000 246.400
64.90000 290.800
65.00000 280.600
65.10000 298.700
65.20000 290.000
65.30000 313.800
65.40000 336.700
65.50000 305.800
65.60000 327.300
65.70000 304.500
65.80000 296.800
65.90000 282.600
66.00000 252.800
66.10000 268.400
66.20000 257.300
66.30000 258.400
66.40000 262.400
66.50000 274.500
66.60000 284.200
66.70000 273.000
66.80000 255.000
66.90000 285.400
67.00000 276.700
67.10000 285.800
67.20000 272.700
67.30000 276.500
67.40000 298.500
67.50000 301.100
67.60000 332.200
67.70000 347.900
67.80000 350.800
67.90000 336.600
68.00000 319.400
68.10000 307.400
68.20000 275.000
68.30000 266.000
68.40000 284.700
68.50000 269.100
68.60000 284.300
68.70000 267.000
68.80000 268.500
68.90000 335.900
69.00000 328.600
69.10000 291.500
69.20000 301.800
69.30000 295.600
69.40000 298.300
69.50000 301.000
69.60000 293.600
69.70000 335.000
69.80000 308.800
69.90000 297.100
70.00000 273.800
70.10000 282.200
70.20000 271.500
70.30000 263.800
70.40000 278.100
70.50000 246.200
70.60000 236.300
70.70000 224.800
70.80000 264.600
70.90000 246.000
71.00000 250.400
71.10000 200.500
71.20000 240.200
71.30000 243.000
71.40000 281.600
71.50000 276.200
71.60000 278.800
71.70000 281.300
71.80000 283.600
71.90000 326.700
72.00000 368.700
72.10000 400.800
72.20000 410.800
72.30000 446.700
72.40000 425.700
72.50000 453.200
72.60000 455.000
72.70000 407.700
72.80000 382.300
72.90000 391.800
73.00000 352.000
73.10000 370.100
73.20000 351.300
73.30000 281.900
73.40000 351.900
73.50000 281.600
73.60000 271.400
73.70000 307.000
73.80000 254.000
73.90000 265.600
74.00000 225.400
74.10000 232.700
74.20000 236.900
74.30000 253.400
74.40000 266.300
74.50000 238.600
74.60000 254.100
74.70000 264.900
74.80000 277.100
74.90000 269.800
75.00000 293.000
75.10000 289.700
75.20000 310.000
75.30000 304.200
75.40000 333.700
75.50000 336.800
75.60000 294.700
75.70000 312.700
75.80000 317.200
75.90000 293.400
76.00000 306.500
76.10000 260.900
76.20000 287.800
76.30000 270.800
76.40000 254.800
76.50000 247.100
76.60000 262.100
76.70000 262.400
76.80000 272.300
76.90000 209.000
77.00000 247.900
77.10000 234.700
77.20000 234.500
77.30000 249.400
77.40000 262.700
77.50000 221.900
77.60000 258.700
77.70000 255.800
77.80000 269.600
77.90000 276.000
78.00000 214.500
78.10000 253.900
78.20000 219.800
78.30000 229.400
78.40000 244.100
78.50000 222.500
78.60000 252.500
78.70000 235.400
78.80000 233.900
78.90000 255.900
79.00000 258.200
79.10000 255.500
79.20000 256.400
79.30000 245.400
79.40000 256.400
79.50000 234.700
79.60000 208.900
79.70000 226.700
79.80000 241.600
79.90000 224.500
80.00000 205.300
80.10000 223.100
80.20000 208.800
80.30000 238.700
80.40000 266.100
80.50000 255.500
80.60000 226.400
80.70000 242.600
80.80000 267.100
80.90000 265.800
81.00000 255.000
81.10000 244.500
81.20000 232.600
81.30000 236.100
81.40000 217.100
81.50000 242.500
81.60000 204.500
81.70000 205.300
81.80000 232.600
81.90000 245.300
82.00000 212.000
82.10000 218.800
82.20000 213.600
82.30000 216.000
82.40000 226.600
82.50000 230.300
82.60000 210.500
82.70000 229.000
82.80000 230.700
82.90000 210.700
83.00000 200.200
83.10000 239.000
83.20000 212.700
83.30000 230.700
83.40000 230.200
83.50000 216.700
83.60000 251.600
83.70000 240.500
83.80000 241.000
83.90000 250.000
84.00000 247.600
84.10000 253.200
84.20000 276.600
84.30000 299.300
84.40000 256.600
84.50000 305.500
84.60000 272.500
84.70000 271.200
84.80000 272.900
84.90000 312.200
85.00000 261.300
85.10000 295.700
85.20000 305.000
85.30000 255.200
85.40000 247.100
85.50000 285.300
85.60000 254.100
85.70000 262.100
85.80000 235.900
85.90000 266.400
86.00000 257.900
86.10000 267.100
86.20000 245.500
86.30000 222.900
86.40000 250.600
86.50000 235.300
86.60000 251.100
86.70000 237.300
86.80000 237.700
86.90000 232.500
87.00000 268.300
87.10000 256.700
87.20000 241.500
87.30000 243.400
87.40000 260.500
87.50000 231.200
87.60000 262.400
87.70000 244.600
87.80000 250.700
87.90000 243.400
88.00000 254.800
88.10000 252.300
88.20000 268.700
88.30000 251.100
88.40000 262.500
88.50000 229.700
88.60000 271.600
88.70000 244.600
88.80000 231.900
88.90000 245.500
89.00000 259.200
89.10000 259.200
89.20000 244.900
89.30000 268.000
89.40000 250.300
89.50000 203.700
89.60000 223.300
89.70000 239.100
89.80000 241.600
89.90000 222.100
90.00000 249.900
90.10000 211.000
90.20000 262.000
90.30000 263.500
90.40000 265.800
90.50000 256.900
90.60000 234.600
90.70000 267.200
90.80000 262.500
90.90000 246.400
91.00000 289.400
91.10000 262.600
91.20000 246.600
91.30000 269.600
91.40000 301.200
91.50000 251.500
91.60000 261.600
91.70000 244.500
91.80000 280.700
91.90000 289.200
92.00000 272.900
92.10000 254.700
92.20000 275.100
92.30000 301.300
92.40000 281.000
92.50000 296.700
92.60000 256.800
92.70000 269.400
92.80000 299.500
92.90000 292.000
93.00000 263.700
93.10000 249.600
93.20000 272.100
93.30000 241.600
93.40000 283.800
93.50000 254.900
93.60000 249.200
93.70000 283.600
93.80000 234.900
93.90000 265.000
94.00000 292.300
94.10000 255.300
94.20000 262.600
94.30000 255.100
94.40000 263.900
94.50000 268.500
94.60000 271.000
94.70000 249.300
94.80000 248.400
94.90000 268.500
95.00000 283.100
95.10000 241.500
95.20000 208.400
95.30000 239.500
95.40000 228.400
95.50000 238.000
95.60000 243.900
95.70000 227.600
95.80000 205.300
95.90000 204.200
96.00000 230.400
96.10000 274.500
96.20000 218.200
96.30000 199.600
96.40000 210.500
96.50000 228.200
96.60000 202.700
96.70000 206.400
96.80000 230.100
96.90000 224.800
97.00000 215.700
97.10000 210.100
97.20000 226.800
97.30000 220.600
97.40000 239.600
97.50000 241.500
97.60000 230.400
97.70000 260.400
97.80000 233.800
97.90000 237.600
98.00000 280.000
98.10000 256.600
98.20000 230.400
98.30000 242.500
98.40000 218.200
98.50000 246.200
98.60000 235.300
98.70000 237.100
98.80000 242.400
98.90000 246.600
99.00000 249.000
99.10000 241.500
99.20000 261.400
99.30000 256.700
99.40000 221.500
99.50000 232.400
99.60000 222.100
99.70000 270.800
99.80000 270.800
99.90000 284.700
100 260.300
100.1 304.300
100.2 289.100
100.3 259.800
100.4 309.700
100.5 314.500
100.6 286.000
100.7 293.100
100.8 311.900
100.9 327.900
101 303.300
101.1 276.000
101.2 331.000
101.3 274.600
101.4 285.800
101.5 282.000
101.6 297.700
101.7 288.600
101.8 299.900
101.9 318.100
102 266.700
102.1 318.000
102.2 284.400
102.3 312.500
102.4 283.700
102.5 275.500
102.6 292.100
102.7 266.900
102.8 284.000
102.9 291.700
103 265.600
103.1 270.500
103.2 297.600
103.3 263.800
103.4 283.200
103.5 274.200
103.6 265.000
103.7 244.300
103.8 223.000
103.9 269.400
104 268.900
104.1 268.900
104.2 239.600
104.3 235.600
104.4 215.600
104.5 243.100
104.6 246.100
104.7 222.600
104.8 245.600
104.9 240.800
105 223.300
105.1 227.000
105.2 249.400
105.3 231.900
105.4 252.600
105.5 238.200
105.6 241.000
105.7 230.300
105.8 212.800
105.9 257.100
106 236.100
106.1 234.700
106.2 207.600
106.3 246.100
106.4 239.300
106.5 249.300
106.6 222.700
106.7 245.400
106.8 205.700
106.9 249.300
107 229.100
107.1 242.900
107.2 231.800
107.3 241.900
107.4 233.200
107.5 225.100
107.6 224.800
107.7 216.100
107.8 223.700
107.9 256.100
108 239.200
108.1 251.500
108.2 246.700
108.3 233.200
108.4 247.200
108.5 250.700
108.6 259.000
108.7 243.400
108.8 272.300
108.9 252.400
109 263.000
109.1 242.700
109.2 283.200
109.3 290.600
109.4 247.600
109.5 275.600
109.6 275.000
109.7 253.800
109.8 245.500
109.9 235.800
110 270.400
110.1 267.000
110.2 250.400
110.3 227.800
110.4 262.300
110.5 258.900
110.6 246.200
110.7 229.600
110.8 274.000
110.9 247.800
111 262.600
111.1 261.800
111.2 225.100
111.3 234.700
111.4 239.300
111.5 217.200
111.6 231.200
111.7 255.900
111.8 244.900
111.9 256.800
112 245.000
112.1 229.300
112.2 249.100
112.3 250.600
112.4 239.500
112.5 252.000
112.6 255.300
112.7 236.100
112.8 247.900
112.9 259.700
113 239.200
113.1 247.600
113.2 234.500
113.3 252.300
113.4 225.700
113.5 244.100
113.6 243.400
113.7 249.700
113.8 248.900
113.9 259.800
114 262.100
114.1 248.400
114.2 250.800
114.3 256.100
114.4 239.500
114.5 253.600
114.6 254.200
114.7 262.200
114.8 285.500
114.9 281.900
115 291.200
115.1 251.800
115.2 273.800
115.3 275.800
115.4 266.200
115.5 272.500
115.6 246.300
115.7 273.000
115.8 247.600
115.9 251.400
116 262.600
116.1 260.700
116.2 281.500
116.3 247.800
116.4 266.100
116.5 252.500
116.6 236.200
116.7 252.800
116.8 245.700
116.9 263.200
117 260.300
117.1 263.200
117.2 276.500
117.3 254.200
117.4 255.200
117.5 277.400
117.6 248.300
117.7 228.600
117.8 231.200
117.9 249.500
118 216.600
118.1 237.900
118.2 253.200
118.3 243.600
118.4 249.100
118.5 252.900
118.6 256.900
118.7 244.200
118.8 248.400
118.9 227.300
119 245.200
119.1 232.100
119.2 222.700
119.3 229.400
119.4 210.700
119.5 228.100
119.6 239.700
119.7 213.200
119.8 214.000
119.9 231.400
120 235.000
120.1 214.500
120.2 231.900
120.3 245.200
120.4 217.300
120.5 244.100
120.6 251.200
120.7 230.800
120.8 234.000
120.9 251.900
121 255.500
121.1 234.000
121.2 253.000
121.3 237.000
121.4 242.700
121.5 237.800
121.6 235.700
121.7 222.000
121.8 232.600
121.9 194.100
122 247.400
122.1 228.200
122.2 244.300
122.3 238.200
122.4 202.900
122.5 252.100
122.6 219.800
122.7 248.800
122.8 214.300
122.9 228.900
123 216.100
123.1 224.300
123.2 208.600
123.3 256.500
123.4 226.800
123.5 198.100
123.6 233.200
123.7 214.200
123.8 224.600
123.9 223.200
124 235.300
124.1 192.400
124.2 208.600
124.3 237.100
124.4 232.100
124.5 209.100
124.6 210.900
124.7 216.600
124.8 238.100
124.9 221.700
125 205.500
125.1 213.100
125.2 227.000
125.3 190.300
125.4 186.500
125.5 238.800
125.6 230.800
125.7 210.500
125.8 225.700
125.9 214.200
126 213.400
126.1 176.400
126.2 209.100
126.3 186.600
126.4 218.400
126.5 221.200
126.6 211.100
126.7 229.600
126.8 230.900
126.9 202.600
127 199.800
127.1 245.800
127.2 204.300
127.3 189.600
127.4 233.400
127.5 235.200
127.6 238.100
127.7 226.600
127.8 224.100
127.9 194.400
128 220.700
128.1 240.600
128.2 216.100
128.3 203.000
128.4 234.500
128.5 231.000
128.6 204.600
128.7 219.100
128.8 254.200
128.9 224.100
129 220.500
129.1 231.200
129.2 194.600
129.3 194.500
129.4 224.200
129.5 220.000
129.6 216.000
129.7 236.400
129.8 212.500
129.9 193.100
130 227.000
130.1 220.000
130.2 211.700
130.3 206.100
130.4 210.100
130.5 191.600
130.6 190.800
130.7 202.900
130.8 208.700
130.9 216.900
131 224.700