File: Data/Materials_HUB_Synchrotron_XRD/CYJ_LGeS414_g_144h_XRD.xy
10.00000 2070.500
10.08500 1810.100
10.17000 1806.800
10.25500 1854.800
10.34000 1765.200
10.42500 1620.300
10.51000 1682.000
10.59500 1642.700
10.68000 1677.400
10.76500 1502.600
10.85000 1560.700
10.93500 1538.000
11.02000 1565.600
11.10500 1570.600
11.19000 1454.500
11.27500 1442.000
11.36000 1387.000
11.44500 1269.400
11.53000 1240.300
11.61500 1301.700
11.70000 1292.200
11.78500 1155.400
11.87000 1391.800
11.95500 1140.300
12.04000 1299.300
12.12500 1243.000
12.21000 1210.100
12.29500 1177.000
12.38000 1111.600
12.46500 1181.900
12.55000 1126.800
12.63500 1689.300
12.72000 1720.700
12.80500 1117.400
12.89000 1188.300
12.97500 1133.700
13.06000 1079.100
13.14500 1145.600
13.23000 1088.200
13.31500 1115.100
13.40000 1031.800
13.48500 1032.600
13.57000 992.600
13.65500 987.000
13.74000 1025.700
13.82500 990.600
13.91000 998.200
13.99500 967.900
14.08000 1008.100
14.16500 1034.000
14.25000 1078.400
14.33500 1001.500
14.42000 1145.400
14.50500 987.000
14.59000 998.900
14.67500 1063.300
14.76000 999.900
14.84500 1079.100
14.93000 1016.400
15.01500 1060.500
15.10000 1024.600
15.18500 1012.000
15.27000 1133.000
15.35500 1059.100
15.44000 1092.800
15.52500 1082.200
15.61000 1159.800
15.69500 1072.700
15.78000 4236.500
15.86500 1214.100
15.95000 1135.000
16.03500 1155.500
16.12000 1174.400
16.20500 1140.200
16.29000 1132.600
16.37500 1168.400
16.46000 1171.500
16.54500 1197.300
16.63000 1240.300
16.71500 1164.200
16.80000 1293.900
16.88500 1248.800
16.97000 1367.100
17.05500 1783.500
17.14000 5103.500
17.22500 1361.300
17.31000 1338.200
17.39500 1370.300
17.48000 1343.100
17.56500 1348.600
17.65000 1525.700
17.73500 1363.700
17.82000 1386.000
17.90500 1390.700
17.99000 1369.300
18.07500 1404.000
18.16000 1368.300
18.24500 1500.500
18.33000 1522.700
18.41500 1922.300
18.50000 2078.800
18.58500 1476.200
18.67000 1545.300
18.75500 1601.800
18.84000 1633.100
18.92500 1523.600
19.01000 1564.100
19.09500 1548.700
19.18000 1525.400
19.26500 8303.300
19.35000 1530.400
19.43500 1472.200
19.52000 2594.600
19.60500 1535.800
19.69000 1483.200
19.77500 1464.300
19.86000 1376.400
19.94500 1415.200
20.03000 1461.400
20.11500 1471.500
20.20000 1485.900
20.28500 1334.200
20.37000 1319.900
20.45500 1378.500
20.54000 1379.700
20.62500 1358.500
20.71000 1237.000
20.79500 1364.800
20.88000 1317.800
20.96500 1240.700
21.05000 1219.800
21.13500 1169.400
21.22000 1181.000
21.30500 1092.000
21.39000 1204.800
21.47500 1142.100
21.56000 1045.300
21.64500 1006.000
21.73000 1032.100
21.81500 1070.000
21.90000 1060.600
21.98500 949.700
22.07000 992.400
22.15500 949.200
22.24000 941.800
22.32500 965.000
22.41000 1081.300
22.49500 1393.800
22.58000 889.600
22.66500 869.400
22.75000 768.300
22.83500 767.200
22.92000 895.400
23.00500 3506.300
23.09000 804.000
23.17500 741.500
23.26000 739.400
23.34500 727.600
23.43000 738.900
23.51500 728.000
23.60000 666.900
23.68500 620.000
23.77000 668.800
23.85500 691.000
23.94000 705.700
24.02500 617.400
24.11000 611.300
24.19500 646.700
24.28000 614.900
24.36500 600.100
24.45000 615.600
24.53500 631.500
24.62000 590.700
24.70500 622.400
24.79000 544.200
24.87500 558.700
24.96000 593.200
25.04500 482.600
25.13000 553.800
25.21500 559.300
25.30000 550.300
25.38500 526.500
25.47000 1096.200
25.55500 3966.400
25.64000 606.100
25.72500 502.800
25.81000 510.900
25.89500 489.400
25.98000 459.800
26.06500 488.500
26.15000 456.100
26.23500 512.500
26.32000 2075.800
26.40500 853.800
26.49000 489.500
26.57500 512.700
26.66000 3054.900
26.74500 584.700
26.83000 430.200
26.91500 443.100
27.00000 407.100
27.08500 443.200
27.17000 441.700
27.25500 432.000
27.34000 444.800
27.42500 406.800
27.51000 430.300
27.59500 420.700
27.68000 376.500
27.76500 396.900
27.85000 418.000
27.93500 464.600
28.02000 5029.100
28.10500 605.600
28.19000 385.200
28.27500 398.500
28.36000 372.500
28.44500 378.600
28.53000 371.100
28.61500 363.700
28.70000 368.300
28.78500 384.100
28.87000 341.200
28.95500 341.800
29.04000 479.800
29.12500 10723.600
29.21000 436.600
29.29500 398.700
29.38000 445.200
29.46500 1998.600
29.55000 356.200
29.63500 354.900
29.72000 336.100
29.80500 394.700
29.89000 326.300
29.97500 292.100
30.06000 379.900
30.14500 845.900
30.23000 500.200
30.31500 328.000
30.40000 350.700
30.48500 313.800
30.57000 322.800
30.65500 289.000
30.74000 297.300
30.82500 332.400
30.91000 286.400
30.99500 300.800
31.08000 324.300
31.16500 305.200
31.25000 309.200
31.33500 321.000
31.42000 313.900
31.50500 248.600
31.59000 316.200
31.67500 365.300
31.76000 331.800
31.84500 310.500
31.93000 325.600
32.01500 368.500
32.10000 439.400
32.18500 274.600
32.27000 307.000
32.35500 310.600
32.44000 279.600
32.52500 287.800
32.61000 287.400
32.69500 249.600
32.78000 247.200
32.86500 265.100
32.95000 288.700
33.03500 279.100
33.12000 255.100
33.20500 254.100
33.29000 255.700
33.37500 274.500
33.46000 288.900
33.54500 294.700
33.63000 289.800
33.71500 277.400
33.80000 249.200
33.88500 280.600
33.97000 533.800
34.05500 300.200
34.14000 243.200
34.22500 254.200
34.31000 238.400
34.39500 252.700
34.48000 220.600
34.56500 255.600
34.65000 366.700
34.73500 258.600
34.82000 241.200
34.90500 260.000
34.99000 294.300
35.07500 1514.700
35.16000 261.400
35.24500 243.800
35.33000 758.600
35.41500 323.900
35.50000 234.000
35.58500 222.400
35.67000 223.300
35.75500 225.700
35.84000 205.700
35.92500 188.100
36.01000 221.300
36.09500 202.300
36.18000 185.400
36.26500 201.100
36.35000 190.400
36.43500 172.700
36.52000 194.200
36.60500 201.100
36.69000 191.700
36.77500 188.500
36.86000 177.900
36.94500 176.300
37.03000 201.000
37.11500 202.100
37.20000 832.700
37.28500 389.100
37.37000 182.500
37.45500 283.600
37.54000 162.400
37.62500 163.500
37.71000 525.300
37.79500 189.400
37.88000 599.400
37.96500 262.400
38.05000 539.500
38.13500 152.400
38.22000 130.400
38.30500 163.900
38.39000 183.800
38.47500 320.800
38.56000 142.700
38.64500 172.400
38.73000 397.300
38.81500 156.500
38.90000 126.100
38.98500 136.200
39.07000 252.900
39.15500 740.200
39.24000 142.500
39.32500 126.200
39.41000 139.600
39.49500 118.000
39.58000 175.300
39.66500 1054.700
39.75000 302.000
39.83500 115.300
39.92000 104.500
40.00500 133.800
40.09000 621.000
40.17500 131.500
40.26000 135.200
40.34500 118.900
40.43000 149.400
40.51500 403.500
40.60000 133.900
40.68500 109.400
40.77000 107.700
40.85500 106.600
40.94000 124.400
41.02500 91.400
41.11000 97.400
41.19500 95.800
41.28000 110.000
41.36500 108.400
41.45000 167.400
41.53500 520.600
41.62000 148.200
41.70500 89.000
41.79000 110.100
41.87500 94.500
41.96000 88.400
42.04500 101.200
42.13000 95.900
42.21500 101.500
42.30000 290.800
42.38500 970.400
42.47000 130.900
42.55500 235.300
42.64000 320.200
42.72500 584.800
42.81000 170.400
42.89500 84.000
42.98000 88.100
43.06500 102.100
43.15000 134.200
43.23500 483.100
43.32000 119.700
43.40500 102.000
43.49000 86.400
43.57500 106.500
43.66000 407.000
43.74500 125.800
43.83000 130.800
43.91500 241.600
44.00000 87.800
44.08500 63.700
44.17000 78.100
44.25500 86.700
44.34000 78.900
44.42500 72.000
44.51000 61.000
44.59500 93.100
44.68000 96.900
44.76500 108.800
44.85000 329.100
44.93500 88.800
45.02000 78.400
45.10500 78.100
45.19000 84.200
45.27500 105.700
45.36000 194.600
45.44500 780.000
45.53000 4550.300
45.61500 542.200
45.70000 124.400
45.78500 78.000
45.87000 171.500
45.95500 86.500
46.04000 77.900
46.12500 83.700
46.21000 78.200
46.29500 145.700
46.38000 209.700
46.46500 279.100
46.55000 140.600
46.63500 85.100
46.72000 88.000
46.80500 93.000
46.89000 129.900
46.97500 700.400
47.06000 915.800
47.14500 107.000
47.23000 89.200
47.31500 68.800
47.40000 70.000
47.48500 57.300
47.57000 61.400
47.65500 58.500
47.74000 70.000
47.82500 75.900
47.91000 84.000
47.99500 247.700
48.08000 94.300
48.16500 65.200
48.25000 65.100
48.33500 59.700
48.42000 69.400
48.50500 75.300
48.59000 75.300
48.67500 154.600
48.76000 68.500
48.84500 95.300
48.93000 212.400
49.01500 77.300
49.10000 66.500
49.18500 83.800
49.27000 70.600
49.35500 75.100
49.44000 82.200
49.52500 213.500
49.61000 82.300
49.69500 66.900
49.78000 66.800
49.86500 109.800
49.95000 132.800
50.03500 105.300
50.12000 409.000
50.20500 763.100
50.29000 129.300
50.37500 89.700
50.46000 129.000
50.54500 76.500
50.63000 150.800
50.71500 150.600
50.80000 82.100
50.88500 121.700
50.97000 1696.100
51.05500 110.100
51.14000 86.700
51.22500 263.000
51.31000 156.600
51.39500 74.100
51.48000 63.600
51.56500 69.300
51.65000 71.000
51.73500 78.300
51.82000 581.700
51.90500 164.900
51.99000 85.100
52.07500 82.700
52.16000 101.200
52.24500 441.900
52.33000 1203.500
52.41500 155.700
52.50000 158.300
52.58500 72.300
52.67000 68.700
52.75500 66.400
52.84000 62.500
52.92500 66.900
53.01000 119.600
53.09500 85.500
53.18000 67.800
53.26500 127.500
53.35000 132.100
53.43500 67.700
53.52000 59.500
53.60500 48.300
53.69000 88.400
53.77500 152.300
53.86000 462.900
53.94500 309.000
54.03000 104.700
54.11500 84.100
54.20000 220.500
54.28500 516.800
54.37000 117.000
54.45500 298.400
54.54000 112.100
54.62500 81.600
54.71000 102.000
54.79500 131.900
54.88000 405.500
54.96500 1895.900
55.05000 194.000
55.13500 107.100
55.22000 205.800
55.30500 372.400
55.39000 92.900
55.47500 66.100
55.56000 55.700
55.64500 112.500
55.73000 421.400
55.81500 141.800
55.90000 76.200
55.98500 67.100
56.07000 164.000
56.15500 166.200
56.24000 746.800
56.32500 303.600
56.41000 163.100
56.49500 166.100
56.58000 77.800
56.66500 112.100
56.75000 65.500
56.83500 58.800
56.92000 60.800
57.00500 78.800
57.09000 214.700
57.17500 310.500
57.26000 86.800
57.34500 82.100
57.43000 229.800
57.51500 106.900
57.60000 75.400
57.68500 65.800
57.77000 54.400
57.85500 83.500
57.94000 339.100
58.02500 229.400
58.11000 92.000
58.19500 71.000
58.28000 71.200
58.36500 52.800
58.45000 57.800
58.53500 46.400
58.62000 72.200
58.70500 63.700
58.79000 63.900
58.87500 55.100
58.96000 62.800
59.04500 51.800
59.13000 65.300
59.21500 62.900
59.30000 62.000
59.38500 76.600
59.47000 61.800
59.55500 58.300
59.64000 53.100
59.72500 61.200
59.81000 79.300
59.89500 137.600
59.98000 490.000
60.06500 339.400
60.15000 802.900
60.23500 204.100
60.32000 161.100
60.40500 122.400
60.49000 59.900
60.57500 73.600
60.66000 137.400
60.74500 72.600
60.83000 66.000
60.91500 77.000
61.00000 145.600
61.08500 571.500
61.17000 479.200
61.25500 379.400
61.34000 140.800
61.42500 441.800
61.51000 100.400
61.59500 156.000
61.68000 135.900
61.76500 89.300
61.85000 213.100
61.93500 142.200
62.02000 85.200
62.10500 76.500
62.19000 58.700
62.27500 92.600
62.36000 101.100
62.44500 224.000
62.53000 140.500
62.61500 78.000
62.70000 159.700
62.78500 367.900
62.87000 106.600
62.95500 118.600
63.04000 162.900
63.12500 74.600
63.21000 114.700
63.29500 192.600
63.38000 65.100
63.46500 89.200
63.55000 49.600
63.63500 52.800
63.72000 52.300
63.80500 52.400
63.89000 83.700
63.97500 173.100
64.06000 67.600
64.14500 55.700
64.23000 65.100
64.31500 64.700
64.40000 140.400
64.48500 472.500
64.57000 281.400
64.65500 92.700
64.74000 69.500
64.82500 46.200
64.91000 50.100
64.99500 43.300
65.08000 53.600
65.16500 60.300
65.25000 65.800
65.33500 164.200
65.42000 378.900
65.50500 336.000
65.59000 78.900
65.67500 59.800
65.76000 61.000
65.84500 91.400
65.93000 95.500
66.01500 67.900
66.10000 95.200
66.18500 129.500
66.27000 176.600
66.35500 60.900
66.44000 68.600
66.52500 140.000
66.61000 186.500
66.69500 162.600
66.78000 82.600
66.86500 78.000
66.95000 157.000
67.03500 105.200
67.12000 50.700
67.20500 47.100
67.29000 49.200
67.37500 61.700
67.46000 91.800
67.54500 53.500
67.63000 78.800
67.71500 163.400
67.80000 136.500
67.88500 368.000
67.97000 89.800
68.05500 129.000
68.14000 79.400
68.22500 86.200
68.31000 101.400
68.39500 62.200
68.48000 57.500
68.56500 37.100
68.65000 42.900
68.73500 58.200
68.82000 65.300
68.90500 142.600
68.99000 88.200
69.07500 54.400
69.16000 48.500
69.24500 66.600
69.33000 86.600
69.41500 198.100
69.50000 113.300
69.58500 62.400
69.67000 47.500
69.75500 43.100
69.84000 65.000
69.92500 69.900
70.01000 133.400
70.09500 61.800
70.18000 61.900
70.26500 95.000
70.35000 110.300
70.43500 56.800
70.52000 46.400
70.60500 40.000
70.69000 45.100
70.77500 50.300
70.86000 55.900
70.94500 90.700
71.03000 195.900
71.11500 146.600
71.20000 66.000
71.28500 51.800
71.37000 69.800
71.45500 124.900
71.54000 251.500
71.62500 71.400
71.71000 64.700
71.79500 76.500
71.88000 125.100
71.96500 199.700
72.05000 111.500
72.13500 80.800
72.22000 87.500
72.30500 178.800
72.39000 127.700
72.47500 175.400
72.56000 629.000
72.64500 171.400
72.73000 76.500
72.81500 109.400
72.90000 130.900
72.98500 85.900
73.07000 299.600
73.15500 124.400
73.24000 69.000
73.32500 65.200
73.41000 69.200
73.49500 125.400
73.58000 102.500
73.66500 56.300
73.75000 62.800
73.83500 84.600
73.92000 49.700
74.00500 74.400
74.09000 187.400
74.17500 72.800
74.26000 52.600
74.34500 51.600
74.43000 46.300
74.51500 42.500
74.60000 52.100
74.68500 52.300
74.77000 84.000
74.85500 96.000
74.94000 243.900
75.02500 83.800
75.11000 90.400
75.19500 84.300
75.28000 72.700
75.36500 53.500
75.45000 71.800
75.53500 60.500
75.62000 74.600
75.70500 137.600
75.79000 216.700
75.87500 280.100
75.96000 56.600
76.04500 57.300
76.13000 51.300
76.21500 82.400
76.30000 117.700
76.38500 56.200
76.47000 45.700
76.55500 43.500
76.64000 71.700
76.72500 86.200
76.81000 104.000
76.89500 71.600
76.98000 57.100
77.06500 126.600
77.15000 95.700
77.23500 143.000
77.32000 87.100
77.40500 115.800
77.49000 86.200
77.57500 58.100
77.66000 57.700
77.74500 113.400
77.83000 65.500
77.91500 57.300
78.00000 47.400
78.08500 43.100
78.17000 71.800
78.25500 93.900
78.34000 136.600
78.42500 243.100
78.51000 101.300
78.59500 54.600
78.68000 66.600
78.76500 61.500
78.85000 66.800
78.93500 59.700
79.02000 67.100
79.10500 71.700
79.19000 65.400
79.27500 82.500
79.36000 152.800
79.44500 151.200
79.53000 82.200
79.61500 54.300
79.70000 71.000
79.78500 67.900
79.87000 65.400
79.95500 55.700
80.04000 72.900
80.12500 72.700
80.21000 52.000
80.29500 55.200
80.38000 73.600
80.46500 116.000
80.55000 232.900
80.63500 248.700
80.72000 78.600
80.80500 64.500
80.89000 81.800
80.97500 96.700
81.06000 107.100
81.14500 91.000
81.23000 102.000
81.31500 152.100
81.40000 119.500
81.48500 66.800
81.57000 68.100
81.65500 68.600
81.74000 54.400
81.82500 58.100
81.91000 44.300
81.99500 50.100
82.08000 59.700
82.16500 66.800
82.25000 109.200
82.33500 178.600
82.42000 74.800
82.50500 55.700
82.59000 62.000
82.67500 77.900
82.76000 71.100
82.84500 85.000
82.93000 100.900
83.01500 128.000
83.10000 147.300
83.18500 100.400
83.27000 82.600
83.35500 103.000
83.44000 137.600
83.52500 216.300
83.61000 251.400
83.69500 95.600
83.78000 81.700
83.86500 194.300
83.95000 705.700
84.03500 173.100
84.12000 236.900
84.20500 134.600
84.29000 180.900
84.37500 207.200
84.46000 96.800
84.54500 70.900
84.63000 59.300
84.71500 126.200
84.80000 58.800
84.88500 68.200
84.97000 64.800
85.05500 73.300
85.14000 138.500
85.22500 116.800
85.31000 83.100
85.39500 88.800
85.48000 89.500
85.56500 92.800
85.65000 108.800
85.73500 91.000
85.82000 74.300
85.90500 71.200
85.99000 82.400
86.07500 94.500
86.16000 142.400
86.24500 285.900
86.33000 436.800
86.41500 139.400
86.50000 142.800
86.58500 116.800
86.67000 89.000
86.75500 71.100
86.84000 82.700
86.92500 74.800
87.01000 58.400
87.09500 62.700
87.18000 47.200
87.26500 49.300
87.35000 63.300
87.43500 64.100
87.52000 110.900
87.60500 168.500
87.69000 96.600
87.77500 66.600
87.86000 72.900
87.94500 74.300
88.03000 79.000
88.11500 124.400
88.20000 153.700
88.28500 89.800
88.37000 81.600
88.45500 91.200
88.54000 158.900
88.62500 151.200
88.71000 99.600
88.79500 49.800
88.88000 60.400
88.96500 59.500
89.05000 65.100
89.13500 70.500
89.22000 93.500
89.30500 91.500
89.39000 146.600
89.47500 181.200
89.56000 176.000
89.64500 230.300
89.73000 111.200
89.81500 71.900
89.90000 73.900
89.98500 92.900
90.07000 123.500
90.15500 81.900
90.24000 111.000
90.32500 154.100
90.41000 189.300
90.49500 82.400
90.58000 79.400
90.66500 83.000
90.75000 65.400
90.83500 58.500
90.92000 81.700
91.00500 61.500
91.09000 81.100
91.17500 82.500
91.26000 129.900
91.34500 242.200
91.43000 371.500
91.51500 154.900
91.60000 123.400
91.68500 127.300
91.77000 146.400
91.85500 78.200
91.94000 54.300
92.02500 50.300
92.11000 50.700
92.19500 52.000
92.28000 82.900
92.36500 90.600
92.45000 105.800
92.53500 185.500
92.62000 84.600
92.70500 86.100
92.79000 64.200
92.87500 57.300
92.96000 62.300
93.04500 73.100
93.13000 91.700
93.21500 108.600
93.30000 109.400
93.38500 108.100
93.47000 170.300
93.55500 269.000
93.64000 161.500
93.72500 75.500
93.81000 99.800
93.89500 89.600
93.98000 62.200
94.06500 60.500
94.15000 101.000
94.23500 83.100
94.32000 75.100
94.40500 74.600
94.49000 79.500
94.57500 87.300
94.66000 97.100
94.74500 72.400
94.83000 61.300
94.91500 73.600
95.00000 68.900
95.08500 90.900
95.17000 87.400
95.25500 70.400
95.34000 61.800
95.42500 81.000
95.51000 90.700
95.59500 143.800
95.68000 133.700
95.76500 172.600
95.85000 173.700
95.93500 178.600
96.02000 100.400
96.10500 120.100
96.19000 104.600
96.27500 59.500
96.36000 63.400
96.44500 61.300
96.53000 60.200
96.61500 90.400
96.70000 123.800
96.78500 90.500
96.87000 76.000
96.95500 72.100
97.04000 57.800
97.12500 53.700
97.21000 54.800
97.29500 57.400
97.38000 62.600
97.46500 61.300
97.55000 64.600
97.63500 106.500
97.72000 68.200
97.80500 95.100
97.89000 127.000
97.97500 141.300
98.06000 115.400
98.14500 77.600
98.23000 77.000
98.31500 116.800
98.40000 62.000
98.48500 59.300
98.57000 68.200
98.65500 54.900
98.74000 88.400
98.82500 130.000
98.91000 81.000
98.99500 70.800
99.08000 59.100
99.16500 65.700
99.25000 57.300
99.33500 70.500
99.42000 157.400
99.50500 111.100
99.59000 63.300
99.67500 78.800
99.76000 75.200
99.84500 68.600
99.93000 63.200
100.015 64.500
100.1 62.300
100.185 59.600
100.27 60.400
100.355 102.400
100.44 180.700
100.525 158.900
100.61 117.500
100.695 92.300
100.78 69.400
100.865 84.600
100.95 77.600
101.035 68.500
101.12 121.100
101.205 100.700
101.29 112.400
101.375 141.000
101.46 129.100
101.545 86.600
101.63 74.600
101.715 72.700
101.8 101.100
101.885 228.300
101.97 162.300
102.055 85.400
102.14 72.300
102.225 72.800
102.31 99.400
102.395 96.200
102.48 119.900
102.565 126.400
102.65 83.400
102.735 78.700
102.82 98.900
102.905 101.100
102.99 126.100
103.075 140.600
103.16 132.800
103.245 90.100
103.33 78.300
103.415 83.200
103.5 90.900
103.585 68.200
103.67 64.700
103.755 72.500
103.84 71.900
103.925 56.600
104.01 65.900
104.095 99.600
104.18 95.700
104.265 63.900
104.35 67.800
104.435 52.200
104.52 57.000
104.605 75.000
104.69 87.100
104.775 81.900
104.86 85.700
104.945 60.800
105.03 89.000
105.115 87.200
105.2 73.500
105.285 82.200
105.37 132.000
105.455 87.900
105.54 52.300
105.625 68.900
105.71 83.200
105.795 138.000
105.88 156.500
105.965 108.800
106.05 139.700
106.135 80.500
106.22 62.400
106.305 60.300
106.39 50.000
106.475 51.900
106.56 69.500
106.645 73.700
106.73 53.300
106.815 59.400
106.9 60.200
106.985 82.400
107.07 61.000
107.155 78.200
107.24 85.700
107.325 82.000
107.41 76.500
107.495 71.700
107.58 65.500
107.665 75.500
107.75 76.600
107.835 81.500
107.92 53.700
108.005 72.200
108.09 142.400
108.175 125.400
108.26 132.200
108.345 144.800
108.43 122.800
108.515 94.300
108.6 94.500
108.685 113.300
108.77 109.900
108.855 186.100
108.94 164.700
109.025 121.900
109.11 110.400
109.195 96.800
109.28 90.600
109.365 66.800
109.45 58.100
109.535 77.300
109.62 73.600
109.705 107.800
109.79 97.800
109.875 152.700
109.96 220.800
110.045 180.800
110.13 126.700
110.215 95.100
110.3 81.300
110.385 63.400
110.47 55.300
110.555 48.300
110.64 63.700
110.725 49.100
110.81 78.300
110.895 94.900
110.98 97.100
111.065 77.000
111.15 87.400
111.235 97.400
111.32 94.800
111.405 127.800
111.49 104.500
111.575 84.100
111.66 101.800
111.745 148.500
111.83 88.600
111.915 85.200
112 68.400
112.085 90.200
112.17 80.800
112.255 69.100
112.34 77.100
112.425 50.400
112.51 62.800
112.595 60.800
112.68 69.900
112.765 74.700
112.85 82.000
112.935 62.700
113.02 87.400
113.105 115.900
113.19 127.000
113.275 123.900
113.36 101.600
113.445 89.700
113.53 154.200
113.615 101.500
113.7 93.000
113.785 75.600
113.87 71.700
113.955 73.900
114.04 81.300
114.125 82.900
114.21 58.000
114.295 83.800
114.38 73.800
114.465 83.700
114.55 78.200
114.635 66.400
114.72 67.000
114.805 83.800
114.89 113.600
114.975 78.600
115.06 64.700
115.145 75.900
115.23 70.000
115.315 56.900
115.4 67.200
115.485 54.700
115.57 60.300
115.655 80.900
115.74 121.700
115.825 106.900
115.91 85.500
115.995 64.600
116.08 68.700
116.165 61.200
116.25 60.100
116.335 57.400
116.42 48.500
116.505 45.700
116.59 63.400
116.675 52.700
116.76 57.600
116.845 74.200
116.93 89.200
117.015 109.100
117.1 100.000
117.185 121.900
117.27 98.100
117.355 70.500
117.44 85.700
117.525 102.800
117.61 100.300
117.695 99.600
117.78 83.900
117.865 72.300
117.95 75.800
118.035 117.300
118.12 82.900
118.205 73.900
118.29 69.100
118.375 56.600
118.46 73.000
118.545 86.400
118.63 92.200
118.715 123.600
118.8 98.400
118.885 74.700
118.97 68.100
119.055 71.400
119.14 80.800
119.225 79.800
119.31 80.600
119.395 100.100
119.48 109.200
119.565 96.700
119.65 115.700
119.735 127.400
119.82 142.400
119.905 159.700
119.99 171.400
120.075 126.500
120.16 106.600
120.245 92.900
120.33 107.400
120.415 94.100
120.5 109.100
120.585 70.800
120.67 79.000
120.755 82.900
120.84 76.300
120.925 72.700
121.01 75.300
121.095 102.500
121.18 112.200
121.265 77.200
121.35 52.100
121.435 71.600
121.52 71.000
121.605 70.700
121.69 55.100
121.775 67.900
121.86 75.000
121.945 98.900
122.03 163.400
122.115 137.900
122.2 64.400
122.285 70.100
122.37 63.700
122.455 55.100
122.54 52.900
122.625 60.800
122.71 53.900
122.795 63.600
122.88 62.900
122.965 82.600
123.05 98.100
123.135 94.100
123.22 96.500
123.305 103.700
123.39 89.100
123.475 64.400
123.56 71.000
123.645 94.900
123.73 93.600
123.815 77.200
123.9 85.500
123.985 83.600
124.07 106.500
124.155 107.800
124.24 96.900
124.325 81.900
124.41 86.800
124.495 59.600
124.58 59.200
124.665 53.000
124.75 55.000
124.835 61.300
124.92 60.400
125.005 55.900
125.09 46.200
125.175 62.700
125.26 71.500
125.345 91.000
125.43 92.400
125.515 98.400
125.6 85.500
125.685 74.800
125.77 61.400
125.855 59.300
125.94 62.800
126.025 50.700
126.11 53.500
126.195 53.200
126.28 54.000
126.365 54.500
126.45 73.900
126.535 61.600
126.62 47.600
126.705 51.000
126.79 57.600
126.875 46.800
126.96 69.500
127.045 84.900
127.13 94.700
127.215 112.800
127.3 66.600
127.385 59.100
127.47 68.600
127.555 100.000
127.64 73.700
127.725 84.900
127.81 81.500
127.895 80.900
127.98 86.800
128.065 99.300
128.15 69.500
128.235 58.100
128.32 67.400
128.405 52.700
128.49 50.900
128.575 58.200
128.66 64.500
128.745 67.100
128.83 83.300
128.915 83.200
129 71.800
129.085 65.700
129.17 57.400
129.255 63.900
129.34 74.200
129.425 111.000
129.51 80.700
129.595 77.700
129.68 60.800
129.765 82.000
129.85 112.400
129.935 121.400
130.02 113.800
130.105 71.100
130.19 64.000
130.275 62.500
130.36 57.300
130.445 58.300
130.53 62.400
130.615 62.100
130.7 68.800
130.785 96.400
130.87 112.900
130.955 111.400
131 101.300