File: Data/Materials_HUB_Synchrotron_XRD/CYJ_LPSBr6151_gc_XRD.xy
10.00000 1753.900
10.08500 1673.200
10.17000 1426.100
10.25500 1530.900
10.34000 1653.800
10.42500 1551.200
10.51000 1527.700
10.59500 1529.400
10.68000 1459.800
10.76500 1493.200
10.85000 1370.400
10.93500 1341.600
11.02000 1346.300
11.10500 1271.300
11.19000 1209.800
11.27500 1326.700
11.36000 1316.600
11.44500 1284.700
11.53000 1237.300
11.61500 1256.700
11.70000 1082.100
11.78500 1171.100
11.87000 1129.900
11.95500 1158.700
12.04000 1070.400
12.12500 1167.000
12.21000 1157.500
12.29500 1075.000
12.38000 1014.100
12.46500 1098.600
12.55000 1053.700
12.63500 857.800
12.72000 1013.500
12.80500 1020.100
12.89000 1013.000
12.97500 943.900
13.06000 890.500
13.14500 977.000
13.23000 937.400
13.31500 940.300
13.40000 965.300
13.48500 848.100
13.57000 858.800
13.65500 859.900
13.74000 917.000
13.82500 946.100
13.91000 882.200
13.99500 876.400
14.08000 900.400
14.16500 876.900
14.25000 904.900
14.33500 862.900
14.42000 925.300
14.50500 861.700
14.59000 901.100
14.67500 876.300
14.76000 919.200
14.84500 921.900
14.93000 929.900
15.01500 958.100
15.10000 869.900
15.18500 897.000
15.27000 947.100
15.35500 990.400
15.44000 989.700
15.52500 861.600
15.61000 940.400
15.69500 998.800
15.78000 967.400
15.86500 989.300
15.95000 1025.600
16.03500 942.600
16.12000 1087.000
16.20500 1021.000
16.29000 939.100
16.37500 1024.200
16.46000 1044.100
16.54500 1050.300
16.63000 981.600
16.71500 1030.800
16.80000 1122.300
16.88500 1129.400
16.97000 1118.600
17.05500 1023.500
17.14000 1141.600
17.22500 1118.700
17.31000 1257.300
17.39500 1146.400
17.48000 1158.000
17.56500 1190.300
17.65000 1271.200
17.73500 1570.800
17.82000 2281.900
17.90500 1335.300
17.99000 1232.500
18.07500 1264.000
18.16000 1289.100
18.24500 1247.500
18.33000 1255.000
18.41500 1272.800
18.50000 1292.700
18.58500 1328.900
18.67000 1342.200
18.75500 1327.500
18.84000 1277.500
18.92500 1289.300
19.01000 1299.100
19.09500 1339.300
19.18000 1330.600
19.26500 1233.800
19.35000 1250.400
19.43500 1335.100
19.52000 1324.900
19.60500 1289.400
19.69000 1276.100
19.77500 1351.500
19.86000 1257.400
19.94500 1320.400
20.03000 1207.700
20.11500 1217.300
20.20000 1199.600
20.28500 1202.800
20.37000 1178.900
20.45500 1183.900
20.54000 1168.500
20.62500 1133.900
20.71000 1119.400
20.79500 1158.700
20.88000 1125.500
20.96500 1137.700
21.05000 1055.200
21.13500 1071.400
21.22000 1019.800
21.30500 971.900
21.39000 921.400
21.47500 965.700
21.56000 917.200
21.64500 1031.400
21.73000 913.000
21.81500 917.200
21.90000 865.300
21.98500 825.900
22.07000 827.100
22.15500 879.600
22.24000 772.300
22.32500 795.800
22.41000 782.100
22.49500 728.200
22.58000 797.100
22.66500 758.900
22.75000 664.800
22.83500 691.800
22.92000 709.700
23.00500 720.600
23.09000 706.700
23.17500 707.700
23.26000 635.800
23.34500 680.900
23.43000 619.800
23.51500 700.500
23.60000 573.000
23.68500 624.900
23.77000 556.100
23.85500 608.200
23.94000 596.600
24.02500 551.700
24.11000 522.800
24.19500 566.900
24.28000 535.700
24.36500 522.800
24.45000 583.200
24.53500 544.300
24.62000 554.700
24.70500 489.600
24.79000 514.600
24.87500 499.700
24.96000 535.500
25.04500 543.900
25.13000 633.200
25.21500 1865.100
25.30000 2783.900
25.38500 691.100
25.47000 548.600
25.55500 471.900
25.64000 453.400
25.72500 424.100
25.81000 444.200
25.89500 444.300
25.98000 437.300
26.06500 433.700
26.15000 413.100
26.23500 390.500
26.32000 401.400
26.40500 408.300
26.49000 385.700
26.57500 418.200
26.66000 374.800
26.74500 389.100
26.83000 367.200
26.91500 388.400
27.00000 401.500
27.08500 395.400
27.17000 372.200
27.25500 361.500
27.34000 349.000
27.42500 366.400
27.51000 400.800
27.59500 345.300
27.68000 340.200
27.76500 347.400
27.85000 364.800
27.93500 345.200
28.02000 346.300
28.10500 392.000
28.19000 448.600
28.27500 342.500
28.36000 348.800
28.44500 346.800
28.53000 348.600
28.61500 365.000
28.70000 317.300
28.78500 317.700
28.87000 310.400
28.95500 321.700
29.04000 313.400
29.12500 341.400
29.21000 302.500
29.29500 321.400
29.38000 356.900
29.46500 337.100
29.55000 387.900
29.63500 908.200
29.72000 18476.800
29.80500 734.500
29.89000 437.900
29.97500 377.800
30.06000 313.900
30.14500 296.700
30.23000 307.400
30.31500 265.100
30.40000 281.100
30.48500 293.400
30.57000 287.100
30.65500 298.200
30.74000 305.500
30.82500 299.800
30.91000 371.900
30.99500 649.300
31.08000 14359.600
31.16500 460.700
31.25000 315.800
31.33500 326.700
31.42000 326.800
31.50500 329.400
31.59000 310.900
31.67500 281.000
31.76000 281.900
31.84500 246.100
31.93000 290.100
32.01500 267.400
32.10000 261.300
32.18500 284.400
32.27000 248.100
32.35500 240.400
32.44000 264.300
32.52500 263.200
32.61000 394.900
32.69500 275.500
32.78000 238.600
32.86500 242.400
32.95000 231.400
33.03500 240.100
33.12000 215.400
33.20500 245.200
33.29000 242.300
33.37500 248.600
33.46000 264.900
33.54500 236.800
33.63000 211.900
33.71500 232.100
33.80000 220.000
33.88500 212.800
33.97000 217.700
34.05500 229.300
34.14000 193.000
34.22500 212.200
34.31000 212.000
34.39500 192.500
34.48000 218.100
34.56500 177.900
34.65000 180.400
34.73500 201.500
34.82000 177.900
34.90500 208.200
34.99000 214.000
35.07500 186.100
35.16000 170.900
35.24500 181.900
35.33000 172.600
35.41500 195.700
35.50000 184.600
35.58500 165.300
35.67000 185.500
35.75500 176.500
35.84000 179.100
35.92500 153.000
36.01000 172.800
36.09500 175.200
36.18000 180.300
36.26500 149.700
36.35000 162.900
36.43500 171.200
36.52000 159.000
36.60500 165.100
36.69000 155.400
36.77500 141.900
36.86000 132.400
36.94500 157.800
37.03000 167.300
37.11500 179.000
37.20000 132.100
37.28500 137.900
37.37000 119.800
37.45500 149.800
37.54000 132.000
37.62500 131.300
37.71000 116.900
37.79500 130.700
37.88000 121.900
37.96500 117.300
38.05000 116.600
38.13500 97.500
38.22000 138.300
38.30500 111.600
38.39000 114.200
38.47500 123.100
38.56000 111.600
38.64500 118.400
38.73000 132.800
38.81500 113.600
38.90000 119.600
38.98500 117.600
39.07000 121.100
39.15500 111.100
39.24000 113.800
39.32500 132.000
39.41000 503.800
39.49500 115.000
39.58000 109.800
39.66500 109.000
39.75000 85.700
39.83500 98.900
39.92000 87.700
40.00500 106.900
40.09000 104.700
40.17500 97.400
40.26000 91.700
40.34500 120.100
40.43000 270.800
40.51500 155.400
40.60000 110.700
40.68500 95.400
40.77000 97.000
40.85500 98.600
40.94000 85.400
41.02500 80.600
41.11000 71.800
41.19500 101.600
41.28000 80.200
41.36500 89.600
41.45000 85.100
41.53500 87.600
41.62000 91.000
41.70500 95.800
41.79000 73.400
41.87500 86.600
41.96000 87.000
42.04500 87.800
42.13000 91.400
42.21500 62.800
42.30000 78.900
42.38500 65.700
42.47000 82.700
42.55500 77.300
42.64000 88.600
42.72500 70.700
42.81000 81.800
42.89500 79.700
42.98000 91.900
43.06500 78.400
43.15000 99.900
43.23500 79.000
43.32000 79.300
43.40500 71.900
43.49000 64.600
43.57500 76.800
43.66000 69.400
43.74500 91.200
43.83000 83.700
43.91500 84.900
44.00000 84.100
44.08500 93.200
44.17000 99.400
44.25500 96.900
44.34000 131.200
44.42500 351.300
44.51000 2752.200
44.59500 415.700
44.68000 169.200
44.76500 139.500
44.85000 95.000
44.93500 80.000
45.02000 101.500
45.10500 74.500
45.19000 82.400
45.27500 90.700
45.36000 90.100
45.44500 76.100
45.53000 81.000
45.61500 95.100
45.70000 69.200
45.78500 84.000
45.87000 79.600
45.95500 70.800
46.04000 79.200
46.12500 61.900
46.21000 70.200
46.29500 65.700
46.38000 72.600
46.46500 81.900
46.55000 75.700
46.63500 73.400
46.72000 88.400
46.80500 135.300
46.89000 84.600
46.97500 82.800
47.06000 97.700
47.14500 120.000
47.23000 193.200
47.31500 600.800
47.40000 7480.800
47.48500 222.500
47.57000 131.400
47.65500 93.900
47.74000 79.400
47.82500 102.400
47.91000 79.600
47.99500 98.600
48.08000 74.300
48.16500 74.100
48.25000 87.100
48.33500 73.100
48.42000 73.900
48.50500 67.100
48.59000 76.100
48.67500 71.600
48.76000 65.600
48.84500 75.100
48.93000 62.500
49.01500 70.000
49.10000 60.200
49.18500 71.900
49.27000 71.700
49.35500 80.000
49.44000 72.100
49.52500 67.500
49.61000 64.500
49.69500 70.400
49.78000 89.000
49.86500 74.300
49.95000 67.000
50.03500 73.300
50.12000 65.900
50.20500 76.700
50.29000 72.000
50.37500 61.100
50.46000 81.700
50.54500 60.700
50.63000 76.100
50.71500 61.200
50.80000 73.100
50.88500 90.800
50.97000 98.400
51.05500 79.700
51.14000 66.800
51.22500 69.400
51.31000 94.400
51.39500 65.000
51.48000 102.800
51.56500 109.500
51.65000 124.800
51.73500 258.500
51.82000 849.800
51.90500 7545.400
51.99000 237.700
52.07500 147.600
52.16000 122.200
52.24500 100.200
52.33000 94.600
52.41500 84.800
52.50000 86.900
52.58500 83.500
52.67000 72.000
52.75500 85.700
52.84000 87.900
52.92500 71.000
53.01000 75.500
53.09500 70.800
53.18000 67.800
53.26500 60.800
53.35000 74.400
53.43500 67.100
53.52000 65.200
53.60500 76.900
53.69000 67.900
53.77500 66.500
53.86000 66.500
53.94500 64.000
54.03000 53.600
54.11500 74.000
54.20000 67.000
54.28500 59.900
54.37000 73.300
54.45500 207.400
54.54000 51.100
54.62500 63.600
54.71000 84.000
54.79500 65.300
54.88000 71.200
54.96500 54.300
55.05000 84.400
55.13500 83.700
55.22000 149.300
55.30500 1138.100
55.39000 99.800
55.47500 118.100
55.56000 130.700
55.64500 73.300
55.73000 76.300
55.81500 77.000
55.90000 71.500
55.98500 69.500
56.07000 77.500
56.15500 85.000
56.24000 78.700
56.32500 61.700
56.41000 88.100
56.49500 58.100
56.58000 74.100
56.66500 61.400
56.75000 71.100
56.83500 64.700
56.92000 66.100
57.00500 73.700
57.09000 74.800
57.17500 61.500
57.26000 61.300
57.34500 72.300
57.43000 77.200
57.51500 63.500
57.60000 60.600
57.68500 70.800
57.77000 74.500
57.85500 71.100
57.94000 58.200
58.02500 67.100
58.11000 87.100
58.19500 102.800
58.28000 109.200
58.36500 99.800
58.45000 161.100
58.53500 592.000
58.62000 303.300
58.70500 96.500
58.79000 92.400
58.87500 72.800
58.96000 62.100
59.04500 84.100
59.13000 78.800
59.21500 63.500
59.30000 60.100
59.38500 69.200
59.47000 66.100
59.55500 54.600
59.64000 65.700
59.72500 76.300
59.81000 57.100
59.89500 68.700
59.98000 64.800
60.06500 68.500
60.15000 53.500
60.23500 61.700
60.32000 55.400
60.40500 65.800
60.49000 47.100
60.57500 67.900
60.66000 67.900
60.74500 91.600
60.83000 136.200
60.91500 376.600
61.00000 211.300
61.08500 102.200
61.17000 95.500
61.25500 70.900
61.34000 82.300
61.42500 75.600
61.51000 85.100
61.59500 150.600
61.68000 371.500
61.76500 683.000
61.85000 99.100
61.93500 85.300
62.02000 89.600
62.10500 60.800
62.19000 81.800
62.27500 73.100
62.36000 63.000
62.44500 69.400
62.53000 70.900
62.61500 54.600
62.70000 59.500
62.78500 79.700
62.87000 57.000
62.95500 53.600
63.04000 58.100
63.12500 62.400
63.21000 73.100
63.29500 56.500
63.38000 64.000
63.46500 53.500
63.55000 73.000
63.63500 73.300
63.72000 57.100
63.80500 69.300
63.89000 60.400
63.97500 61.100
64.06000 59.500
64.14500 61.300
64.23000 59.700
64.31500 60.000
64.40000 50.800
64.48500 53.200
64.57000 55.300
64.65500 48.400
64.74000 69.600
64.82500 66.800
64.91000 48.700
64.99500 78.000
65.08000 63.200
65.16500 47.500
65.25000 62.200
65.33500 47.600
65.42000 44.800
65.50500 49.800
65.59000 67.400
65.67500 66.000
65.76000 68.100
65.84500 61.100
65.93000 55.800
66.01500 58.100
66.10000 64.400
66.18500 61.900
66.27000 60.100
66.35500 67.400
66.44000 64.200
66.52500 58.900
66.61000 64.600
66.69500 55.200
66.78000 56.200
66.86500 65.200
66.95000 73.100
67.03500 109.200
67.12000 58.300
67.20500 70.400
67.29000 58.300
67.37500 55.700
67.46000 78.000
67.54500 67.500
67.63000 92.300
67.71500 144.700
67.80000 801.300
67.88500 97.800
67.97000 77.300
68.05500 58.300
68.14000 63.200
68.22500 53.700
68.31000 74.400
68.39500 66.300
68.48000 97.200
68.56500 64.500
68.65000 47.500
68.73500 68.400
68.82000 63.300
68.90500 60.900
68.99000 47.500
69.07500 63.700
69.16000 53.100
69.24500 62.000
69.33000 68.000
69.41500 66.600
69.50000 64.300
69.58500 63.300
69.67000 43.200
69.75500 70.600
69.84000 68.900
69.92500 59.000
70.01000 57.300
70.09500 61.600
70.18000 75.200
70.26500 61.700
70.35000 69.300
70.43500 97.400
70.52000 115.200
70.60500 212.000
70.69000 554.800
70.77500 552.500
70.86000 112.000
70.94500 90.400
71.03000 74.600
71.11500 67.200
71.20000 92.600
71.28500 56.900
71.37000 67.200
71.45500 70.900
71.54000 67.700
71.62500 69.300
71.71000 53.700
71.79500 76.100
71.88000 54.000
71.96500 74.400
72.05000 78.800
72.13500 50.000
72.22000 62.400
72.30500 75.600
72.39000 68.000
72.47500 64.800
72.56000 75.400
72.64500 84.600
72.73000 135.400
72.81500 332.000
72.90000 2387.600
72.98500 162.800
73.07000 97.000
73.15500 89.700
73.24000 77.900
73.32500 69.300
73.41000 86.700
73.49500 87.800
73.58000 64.200
73.66500 63.400
73.75000 61.500
73.83500 61.200
73.92000 62.400
74.00500 55.800
74.09000 58.800
74.17500 48.800
74.26000 60.800
74.34500 59.500
74.43000 52.200
74.51500 61.500
74.60000 61.900
74.68500 78.400
74.77000 70.100
74.85500 66.700
74.94000 61.400
75.02500 69.900
75.11000 63.600
75.19500 59.300
75.28000 62.700
75.36500 63.600
75.45000 72.000
75.53500 70.300
75.62000 55.600
75.70500 49.800
75.79000 51.000
75.87500 61.200
75.96000 55.600
76.04500 68.400
76.13000 68.200
76.21500 82.500
76.30000 93.000
76.38500 164.500
76.47000 704.000
76.55500 94.000
76.64000 57.300
76.72500 67.000
76.81000 76.600
76.89500 69.200
76.98000 67.100
77.06500 67.900
77.15000 70.000
77.23500 54.400
77.32000 51.900
77.40500 55.000
77.49000 54.300
77.57500 58.200
77.66000 71.100
77.74500 72.300
77.83000 84.300
77.91500 69.800
78.00000 72.800
78.08500 58.900
78.17000 56.700
78.25500 60.400
78.34000 52.500
78.42500 68.400
78.51000 66.300
78.59500 70.700
78.68000 61.200
78.76500 59.000
78.85000 63.500
78.93500 52.900
79.02000 66.800
79.10500 77.400
79.19000 104.700
79.27500 225.800
79.36000 65.000
79.44500 66.000
79.53000 58.600
79.61500 69.000
79.70000 57.100
79.78500 58.500
79.87000 62.100
79.95500 66.600
80.04000 67.200
80.12500 64.200
80.21000 48.900
80.29500 56.300
80.38000 71.700
80.46500 63.000
80.55000 57.100
80.63500 42.500
80.72000 60.000
80.80500 55.000
80.89000 56.300
80.97500 62.800
81.06000 63.800
81.14500 65.300
81.23000 75.000
81.31500 64.400
81.40000 60.900
81.48500 65.100
81.57000 51.100
81.65500 59.700
81.74000 79.900
81.82500 103.900
81.91000 163.400
81.99500 352.300
82.08000 370.700
82.16500 85.100
82.25000 84.200
82.33500 74.100
82.42000 65.400
82.50500 79.200
82.59000 72.000
82.67500 72.000
82.76000 59.900
82.84500 60.100
82.93000 60.700
83.01500 64.200
83.10000 61.500
83.18500 60.700
83.27000 60.800
83.35500 52.000
83.44000 66.300
83.52500 66.400
83.61000 68.500
83.69500 70.700
83.78000 79.200
83.86500 83.400
83.95000 116.200
84.03500 150.600
84.12000 921.700
84.20500 101.900
84.29000 78.700
84.37500 59.500
84.46000 67.900
84.54500 68.500
84.63000 96.000
84.71500 135.500
84.80000 638.900
84.88500 80.600
84.97000 72.300
85.05500 72.400
85.14000 56.400
85.22500 61.300
85.31000 53.600
85.39500 53.300
85.48000 68.500
85.56500 50.800
85.65000 57.200
85.73500 44.500
85.82000 57.700
85.90500 58.300
85.99000 58.900
86.07500 63.400
86.16000 57.000
86.24500 56.500
86.33000 49.800
86.41500 57.800
86.50000 63.400
86.58500 59.600
86.67000 64.500
86.75500 52.700
86.84000 70.700
86.92500 66.300
87.01000 74.500
87.09500 66.700
87.18000 63.500
87.26500 55.500
87.35000 40.500
87.43500 54.700
87.52000 59.700
87.60500 57.600
87.69000 49.200
87.77500 46.200
87.86000 58.500
87.94500 41.500
88.03000 46.800
88.11500 69.700
88.20000 51.300
88.28500 53.200
88.37000 51.800
88.45500 44.500
88.54000 47.000
88.62500 46.100
88.71000 47.700
88.79500 56.300
88.88000 52.900
88.96500 43.100
89.05000 55.600
89.13500 43.900
89.22000 52.000
89.30500 58.900
89.39000 45.000
89.47500 52.900
89.56000 64.800
89.64500 76.900
89.73000 46.700
89.81500 53.900
89.90000 50.500
89.98500 61.800
90.07000 58.100
90.15500 68.300
90.24000 82.800
90.32500 97.400
90.41000 56.200
90.49500 51.700
90.58000 50.100
90.66500 52.100
90.75000 52.200
90.83500 57.000
90.92000 55.400
91.00500 58.000
91.09000 51.000
91.17500 58.200
91.26000 59.700
91.34500 50.300
91.43000 72.700
91.51500 58.900
91.60000 43.500
91.68500 61.200
91.77000 64.000
91.85500 54.900
91.94000 56.900
92.02500 61.100
92.11000 49.300
92.19500 47.900
92.28000 46.100
92.36500 59.700
92.45000 45.300
92.53500 56.300
92.62000 58.600
92.70500 60.600
92.79000 76.100
92.87500 74.400
92.96000 119.000
93.04500 440.800
93.13000 59.100
93.21500 75.600
93.30000 62.200
93.38500 58.900
93.47000 59.200
93.55500 49.000
93.64000 55.900
93.72500 65.600
93.81000 70.300
93.89500 60.300
93.98000 52.300
94.06500 47.600
94.15000 54.800
94.23500 49.200
94.32000 54.300
94.40500 70.700
94.49000 64.400
94.57500 57.700
94.66000 62.300
94.74500 68.200
94.83000 77.200
94.91500 73.800
95.00000 102.800
95.08500 324.900
95.17000 121.800
95.25500 59.000
95.34000 66.000
95.42500 56.200
95.51000 61.600
95.59500 55.000
95.68000 58.500
95.76500 47.500
95.85000 57.200
95.93500 56.400
96.02000 80.000
96.10500 57.600
96.19000 71.400
96.27500 53.200
96.36000 55.200
96.44500 47.300
96.53000 51.600
96.61500 64.200
96.70000 58.300
96.78500 60.900
96.87000 64.600
96.95500 53.900
97.04000 52.200
97.12500 60.400
97.21000 68.500
97.29500 52.000
97.38000 66.500
97.46500 62.400
97.55000 63.200
97.63500 52.000
97.72000 75.100
97.80500 78.600
97.89000 59.700
97.97500 59.900
98.06000 60.400
98.14500 69.300
98.23000 83.900
98.31500 86.300
98.40000 146.000
98.48500 251.900
98.57000 890.700
98.65500 120.900
98.74000 77.100
98.82500 59.300
98.91000 87.100
98.99500 52.400
99.08000 63.100
99.16500 45.100
99.25000 61.900
99.33500 60.000
99.42000 65.900
99.50500 60.700
99.59000 54.100
99.67500 68.700
99.76000 65.900
99.84500 55.700
99.93000 52.700
100.015 54.600
100.1 64.100
100.185 58.900
100.27 61.000
100.355 57.800
100.44 47.600
100.525 55.700
100.61 75.300
100.695 72.000
100.78 74.200
100.865 40.000
100.95 48.900
101.035 58.000
101.12 54.800
101.205 58.000
101.29 73.900
101.375 93.400
101.46 57.500
101.545 52.200
101.63 61.200
101.715 63.400
101.8 52.000
101.885 49.100
101.97 52.800
102.055 56.000
102.14 54.600
102.225 51.400
102.31 47.900
102.395 73.700
102.48 63.300
102.565 67.400
102.65 52.900
102.735 67.700
102.82 65.200
102.905 60.000
102.99 40.600
103.075 63.100
103.16 60.600
103.245 64.000
103.33 44.400
103.415 50.700
103.5 58.200
103.585 56.500
103.67 71.400
103.755 68.300
103.84 84.900
103.925 97.600
104.01 137.000
104.095 255.500
104.18 591.600
104.265 108.200
104.35 82.700
104.435 63.200
104.52 71.900
104.605 69.000
104.69 62.800
104.775 62.100
104.86 60.600
104.945 52.700
105.03 65.500
105.115 63.700
105.2 54.400
105.285 58.100
105.37 69.700
105.455 56.000
105.54 66.100
105.625 67.700
105.71 53.400
105.795 63.700
105.88 68.200
105.965 62.900
106.05 71.600
106.135 88.500
106.22 140.300
106.305 403.000
106.39 97.100
106.475 58.700
106.56 67.100
106.645 66.500
106.73 52.000
106.815 81.000
106.9 90.500
106.985 248.700
107.07 96.800
107.155 58.400
107.24 56.800
107.325 60.100
107.41 60.100
107.495 62.700
107.58 48.200
107.665 46.300
107.75 55.900
107.835 53.600
107.92 62.600
108.005 55.600
108.09 54.300
108.175 53.900
108.26 59.800
108.345 71.100
108.43 44.900
108.515 67.900
108.6 58.900
108.685 56.400
108.77 69.600
108.855 61.200
108.94 44.600
109.025 58.000
109.11 62.900
109.195 53.300
109.28 40.300
109.365 44.500
109.45 55.600
109.535 53.000
109.62 48.100
109.705 42.700
109.79 53.500
109.875 52.700
109.96 56.400
110.045 65.100
110.13 46.200
110.215 61.600
110.3 53.900
110.385 49.700
110.47 44.900
110.555 67.100
110.64 65.300
110.725 45.300
110.81 49.400
110.895 64.400
110.98 43.800
111.065 61.400
111.15 55.400
111.235 56.900
111.32 47.900
111.405 47.300
111.49 55.700
111.575 54.000
111.66 57.300
111.745 65.800
111.83 42.700
111.915 64.700
112 62.200
112.085 89.700
112.17 63.400
112.255 57.000
112.34 65.600
112.425 58.400
112.51 72.300
112.595 59.400
112.68 76.000
112.765 79.400
112.85 183.900
112.935 60.900
113.02 52.500
113.105 76.600
113.19 55.100
113.275 40.200
113.36 52.800
113.445 52.400
113.53 53.100
113.615 46.500
113.7 48.200
113.785 57.600
113.87 56.800
113.955 46.300
114.04 41.200
114.125 64.900
114.21 54.800
114.295 57.800
114.38 46.200
114.465 43.800
114.55 61.800
114.635 66.200
114.72 46.700
114.805 48.900
114.89 59.200
114.975 58.100
115.06 52.000
115.145 56.400
115.23 52.900
115.315 52.900
115.4 70.200
115.485 73.200
115.57 80.100
115.655 68.900
115.74 113.700
115.825 246.500
115.91 119.600
115.995 69.400
116.08 63.500
116.165 45.000
116.25 55.400
116.335 70.100
116.42 51.400
116.505 45.600
116.59 46.100
116.675 51.200
116.76 50.100
116.845 57.400
116.93 53.000
117.015 61.400
117.1 63.300
117.185 50.700
117.27 59.600
117.355 63.100
117.44 52.900
117.525 54.600
117.61 60.100
117.695 47.300
117.78 59.500
117.865 56.900
117.95 63.800
118.035 78.400
118.12 154.700
118.205 121.000
118.29 61.400
118.375 53.100
118.46 66.800
118.545 57.800
118.63 53.500
118.715 56.400
118.8 53.900
118.885 54.800
118.97 43.400
119.055 64.500
119.14 60.700
119.225 44.500
119.31 58.100
119.395 44.700
119.48 56.600
119.565 50.200
119.65 52.800
119.735 57.100
119.82 40.000
119.905 47.600
119.99 51.500
120.075 42.000
120.16 38.600
120.245 59.300
120.33 49.000
120.415 51.300
120.5 55.500
120.585 44.700
120.67 42.700
120.755 55.700
120.84 49.300
120.925 56.800
121.01 54.900
121.095 45.300
121.18 56.300
121.265 42.700
121.35 61.200
121.435 61.600
121.52 49.400
121.605 56.100
121.69 62.200
121.775 52.200
121.86 62.900
121.945 75.800
122.03 104.000
122.115 202.900
122.2 90.600
122.285 68.700
122.37 56.800
122.455 61.100
122.54 59.100
122.625 50.100
122.71 62.200
122.795 52.200
122.88 49.200
122.965 54.500
123.05 52.000
123.135 45.400
123.22 57.900
123.305 53.400
123.39 66.900
123.475 47.600
123.56 54.000
123.645 51.300
123.73 62.100
123.815 54.400
123.9 40.700
123.985 53.100
124.07 48.500
124.155 55.500
124.24 61.500
124.325 51.500
124.41 57.300
124.495 59.900
124.58 93.700
124.665 60.800
124.75 61.800
124.835 47.300
124.92 44.500
125.005 58.700
125.09 60.200
125.175 57.600
125.26 55.700
125.345 76.100
125.43 130.000
125.515 63.500
125.6 58.100
125.685 48.600
125.77 43.400
125.855 58.700
125.94 56.300
126.025 52.500
126.11 55.900
126.195 57.400
126.28 54.900
126.365 46.300
126.45 49.100
126.535 45.600
126.62 63.400
126.705 60.600
126.79 49.600
126.875 58.000
126.96 56.800
127.045 45.200
127.13 50.900
127.215 47.500
127.3 49.300
127.385 54.200
127.47 44.700
127.555 45.700
127.64 58.000
127.725 59.100
127.81 46.000
127.895 49.900
127.98 52.600
128.065 40.800
128.15 48.800
128.235 55.900
128.32 53.700
128.405 59.500
128.49 70.800
128.575 61.500
128.66 76.000
128.745 83.000
128.83 171.200
128.915 123.400
129 60.800
129.085 49.400
129.17 61.500
129.255 62.900
129.34 46.300
129.425 46.000
129.51 43.200
129.595 57.700
129.68 51.800
129.765 50.600
129.85 58.100
129.935 53.300
130.02 50.400
130.105 49.700
130.19 42.600
130.275 55.800
130.36 43.600
130.445 56.400
130.5 55.600