File: Data/Materials_HUB_Synchrotron_XRD/CYJ_PSO_4-16_XRD.xy
10.30000 3168.180
10.38500 3063.019
10.47000 3026.951
10.55500 2983.360
10.64000 2934.178
10.72500 2946.205
10.81000 2826.817
10.89500 2804.579
10.98000 2673.077
11.06500 2801.221
11.15000 2823.949
11.23500 2646.935
11.32000 2569.750
11.40500 2542.585
11.49000 2410.290
11.57500 2282.184
11.66000 2207.383
11.74500 2342.917
11.83000 2211.844
11.91500 2114.233
12.00000 2271.053
12.08500 2160.984
12.17000 2084.152
12.25500 2130.486
12.34000 2024.309
12.42500 1977.490
12.51000 2128.220
12.59500 1963.288
12.68000 2018.761
12.76500 2020.414
12.85000 1992.108
12.93500 2006.174
13.02000 1992.460
13.10500 1872.020
13.19000 1940.182
13.27500 1852.525
13.36000 1948.201
13.44500 1917.002
13.53000 1841.859
13.61500 1720.593
13.70000 1882.945
13.78500 1757.188
13.87000 1851.460
13.95500 1772.253
14.04000 1947.567
14.12500 1737.583
14.21000 1758.600
14.29500 1785.607
14.38000 1863.858
14.46500 1792.111
14.55000 1764.929
14.63500 1824.950
14.72000 1802.773
14.80500 2973.901
14.89000 1767.932
14.97500 2380.925
15.06000 1910.818
15.14500 1892.658
15.23000 1813.090
15.31500 1839.506
15.40000 1913.870
15.48500 1899.516
15.57000 1974.838
15.65500 1996.424
15.74000 1926.871
15.82500 2032.170
15.91000 2080.757
15.99500 1893.933
16.08000 1987.641
16.16500 1980.595
16.25000 2068.600
16.33500 2201.301
16.42000 2094.269
16.50500 2043.230
16.59000 2088.866
16.67500 2074.841
16.76000 2189.349
16.84500 2134.959
16.93000 2158.233
17.01500 2159.402
17.10000 2238.095
17.18500 2206.886
17.27000 2248.942
17.35500 2181.901
17.44000 2405.735
17.52500 3251.348
17.61000 2417.816
17.69500 2530.463
17.78000 2401.051
17.86500 2485.952
17.95000 2383.353
18.03500 2468.870
18.12000 2522.158
18.20500 2506.621
18.29000 5097.145
18.37500 2711.435
18.46000 2774.068
18.54500 2574.094
18.63000 2709.646
18.71500 2741.791
18.80000 2618.639
18.88500 2693.957
18.97000 2736.787
19.05500 2628.981
19.14000 2632.908
19.22500 2734.843
19.31000 2600.702
19.39500 2602.918
19.48000 2665.664
19.56500 2599.904
19.65000 2592.175
19.73500 2485.614
19.82000 2566.459
19.90500 2521.924
19.99000 2406.102
20.07500 2406.533
20.16000 2465.994
20.24500 2337.927
20.33000 2286.775
20.41500 2157.838
20.50000 2360.580
20.58500 2237.516
20.67000 2367.675
20.75500 2485.704
20.84000 2267.838
20.92500 2403.151
21.01000 14631.011
21.09500 4269.448
21.18000 2561.784
21.26500 2118.918
21.35000 2066.700
21.43500 1917.024
21.52000 1958.222
21.60500 1987.670
21.69000 1797.123
21.77500 1816.757
21.86000 1904.282
21.94500 1775.686
22.03000 1675.422
22.11500 1559.845
22.20000 1546.339
22.28500 1609.300
22.37000 1562.619
22.45500 1504.369
22.54000 1575.562
22.62500 1440.531
22.71000 1546.379
22.79500 1464.518
22.88000 1407.300
22.96500 1332.995
23.05000 1351.459
23.13500 1322.193
23.22000 1335.577
23.30500 1284.682
23.39000 1249.982
23.47500 1185.631
23.56000 1269.966
23.64500 1211.223
23.73000 1200.098
23.81500 1197.830
23.90000 1145.857
23.98500 1121.154
24.07000 1096.782
24.15500 1071.606
24.24000 1090.976
24.32500 1067.153
24.41000 995.821
24.49500 1080.236
24.58000 1055.259
24.66500 1004.416
24.75000 1036.820
24.83500 924.070
24.92000 1077.439
25.00500 1021.419
25.09000 985.567
25.17500 921.761
25.26000 841.035
25.34500 976.699
25.43000 876.765
25.51500 924.061
25.60000 887.698
25.68500 1066.662
25.77000 866.349
25.85500 945.327
25.94000 879.877
26.02500 854.838
26.11000 836.630
26.19500 805.077
26.28000 789.646
26.36500 762.067
26.45000 779.832
26.53500 677.662
26.62000 789.033
26.70500 704.573
26.79000 728.263
26.87500 739.543
26.96000 702.706
27.04500 719.737
27.13000 729.958
27.21500 653.917
27.30000 664.053
27.38500 707.381
27.47000 745.482
27.55500 671.544
27.64000 763.097
27.72500 718.659
27.81000 818.902
27.89500 1015.806
27.98000 8189.016
28.06500 1657.669
28.15000 776.349
28.23500 659.514
28.32000 610.996
28.40500 678.970
28.49000 658.737
28.57500 646.947
28.66000 644.153
28.74500 655.721
28.83000 655.127
28.91500 583.775
29.00000 634.360
29.08500 630.014
29.17000 645.168
29.25500 1141.824
29.34000 698.930
29.42500 1049.903
29.51000 1232.583
29.59500 705.918
29.68000 639.521
29.76500 693.992
29.85000 723.113
29.93500 613.066
30.02000 546.942
30.10500 597.326
30.19000 1164.212
30.27500 840.016
30.36000 586.141
30.44500 573.282
30.52500 579.629
30.61000 1427.562
30.69500 521.683
30.78000 557.248
30.86500 635.723
30.95000 484.256
31.03500 553.785
31.12000 501.851
31.20500 528.388
31.29000 564.028
31.37500 522.711
31.46000 466.285
31.54500 507.504
31.63000 498.593
31.71500 518.493
31.80000 542.194
31.88500 509.564
31.97000 703.755
32.05500 8349.799
32.14000 809.254
32.22500 510.948
32.31000 457.732
32.39500 470.098
32.48000 524.188
32.56500 510.255
32.65000 502.282
32.73500 488.172
32.82000 509.213
32.90500 507.242
32.99000 438.209
33.07500 441.050
33.16000 435.614
33.24500 420.930
33.33000 484.303
33.41500 511.727
33.50000 3007.619
33.58500 1788.608
33.67000 500.330
33.75500 428.762
33.84000 641.405
33.92500 425.564
34.01000 406.372
34.09500 453.773
34.18000 395.639
34.26500 412.885
34.35000 386.085
34.43500 389.220
34.52000 371.882
34.60500 406.788
34.69000 366.724
34.77500 380.016
34.86000 387.034
34.94500 364.704
35.03000 386.138
35.11500 402.626
35.20000 328.908
35.28500 446.750
35.37000 368.214
35.45500 347.335
35.54000 352.244
35.62500 311.255
35.71000 311.916
35.79500 313.551
35.88000 325.276
35.96500 285.902
36.05000 309.469
36.13500 296.843
36.22000 339.822
36.30500 534.355
36.39000 317.579
36.47500 312.432
36.56000 293.169
36.64500 302.537
36.73000 302.878
36.81500 371.331
36.90000 1892.323
36.98500 323.418
37.07000 346.124
37.15500 289.516
37.24000 253.313
37.32500 253.429
37.41000 226.867
37.49500 228.805
37.58000 215.653
37.66500 217.884
37.75000 255.919
37.83500 229.216
37.92000 224.889
38.00500 231.716
38.09000 198.571
38.17500 206.319
38.26000 206.101
38.34500 192.335
38.43000 213.331
38.51500 197.131
38.60000 419.691
38.68500 622.837
38.77000 279.602
38.85500 191.584
38.94000 216.604
39.02500 182.512
39.11000 179.727
39.19500 197.958
39.28000 215.440
39.36500 195.026
39.45000 179.098
39.53500 168.674
39.62000 173.749
39.70500 154.078
39.79000 171.648
39.87500 220.345
39.96000 156.826
40.04500 177.668
40.13000 156.274
40.21500 178.190
40.30000 166.587
40.38500 156.189
40.47000 165.255
40.55500 174.384
40.64000 148.826
40.72500 154.776
40.81000 163.423
40.89500 159.826
40.98000 151.462
41.06500 156.927
41.15000 153.212
41.23500 154.984
41.32000 210.898
41.40500 2167.232
41.49000 223.726
41.57500 169.926
41.66000 142.776
41.74500 141.893
41.83000 136.372
41.91500 146.330
42.00000 147.959
42.08500 158.651
42.17000 414.336
42.25500 187.528
42.34000 153.308
42.42500 157.581
42.51000 158.567
42.59500 224.974
42.68000 244.131
42.76500 2309.055
42.85000 262.641
42.93500 187.068
43.02000 1124.620
43.10500 151.868
43.19000 121.607
43.27500 124.868
43.36000 120.916
43.44500 125.423
43.53000 128.361
43.61500 112.610
43.70000 131.390
43.78500 179.149
43.87000 172.387
43.95500 122.067
44.04000 124.421
44.12500 100.780
44.21000 162.452
44.29500 237.505
44.38000 1748.264
44.46500 375.075
44.55000 139.630
44.63500 135.221
44.72000 110.540
44.80500 127.426
44.89000 112.079
44.97500 106.688
45.06000 131.591
45.14500 99.896
45.23000 104.026
45.31500 144.105
45.40000 166.015
45.48500 1007.113
45.57000 245.071
45.65500 205.128
45.74000 2196.606
45.82500 196.603
45.91000 128.122
45.99500 123.011
46.08000 153.384
46.16500 105.082
46.25000 102.856
46.33500 110.001
46.42000 91.903
46.50500 117.628
46.59000 140.235
46.67500 221.162
46.76000 145.538
46.84500 437.602
46.93000 325.257
47.01500 138.144
47.10000 131.975
47.18500 109.197
47.27000 139.632
47.35500 1334.104
47.44000 379.308
47.52500 173.684
47.61000 136.730
47.69500 124.825
47.78000 100.672
47.86500 98.645
47.95000 110.257
48.03500 139.544
48.12000 962.479
48.20500 215.449
48.29000 136.258
48.37500 108.869
48.46000 132.541
48.54500 174.477
48.63000 3323.063
48.71500 185.290
48.80000 123.408
48.88500 133.888
48.97000 110.587
49.05500 94.257
49.14000 105.023
49.22500 112.076
49.31000 112.052
49.39500 100.591
49.48000 148.669
49.56500 373.677
49.65000 466.008
49.73500 159.358
49.82000 113.545
49.90500 97.739
49.99000 121.067
50.07500 99.705
50.16000 95.516
50.24500 106.909
50.33000 140.915
50.41500 144.504
50.50000 111.435
50.58000 93.777
50.66500 231.839
50.75000 128.809
50.83500 103.985
50.92000 100.262
51.00500 176.589
51.09000 708.007
51.17500 419.757
51.26000 128.251
51.34500 125.688
51.43000 117.680
51.51500 107.927
51.60000 120.185
51.68500 109.604
51.77000 107.220
51.85500 103.489
51.94000 117.799
52.02500 100.369
52.11000 115.713
52.19500 145.247
52.28000 421.648
52.36500 198.494
52.45000 100.246
52.53500 101.672
52.62000 93.334
52.70500 101.042
52.79000 121.966
52.87500 97.090
52.96000 99.265
53.04500 101.474
53.13000 72.725
53.21500 121.894
53.30000 149.353
53.38500 82.019
53.47000 93.997
53.55500 102.418
53.64000 79.600
53.72500 106.332
53.81000 100.188
53.89500 86.377
53.98000 94.632
54.06500 75.610
54.15000 118.058
54.23500 101.437
54.32000 135.580
54.40500 456.503
54.49000 260.051
54.57500 110.482
54.66000 87.568
54.74500 97.286
54.83000 89.389
54.91500 105.689
55.00000 97.316
55.08500 97.714
55.17000 123.286
55.25500 94.801
55.34000 106.164
55.42500 96.874
55.51000 157.189
55.59500 915.489
55.68000 208.303
55.76500 219.335
55.85000 1926.415
55.93500 327.904
56.02000 128.785
56.10500 113.428
56.19000 103.898
56.27500 110.273
56.36000 102.678
56.44500 105.137
56.53000 142.879
56.61500 391.768
56.70000 112.582
56.78500 101.659
56.87000 102.434
56.95500 168.985
57.04000 311.330
57.12500 113.281
57.21000 98.093
57.29500 95.561
57.38000 82.982
57.46500 80.381
57.55000 120.258
57.63500 240.691
57.72000 844.005
57.80500 172.769
57.89000 133.569
57.97500 95.195
58.06000 129.508
58.14500 702.059
58.23000 110.565
58.31500 111.383
58.40000 94.174
58.48500 92.845
58.57000 96.292
58.65500 79.573
58.74000 96.193
58.82500 97.609
58.91000 132.636
58.99500 102.440
59.08000 78.753
59.16500 77.886
59.25000 98.504
59.33500 87.306
59.42000 99.522
59.50500 92.825
59.59000 96.362
59.67500 91.852
59.76000 87.428
59.84500 100.736
59.93000 166.829
60.01500 105.349
60.10000 87.672
60.18500 78.169
60.27000 81.792
60.35500 97.630
60.44000 105.560
60.52500 97.481
60.61000 98.256
60.69500 167.414
60.78000 155.186
60.86500 140.244
60.95000 228.051
61.03500 1419.305
61.12000 359.763
61.20500 171.743
61.29000 135.868
61.37500 121.807
61.46000 214.903
61.54500 97.662
61.63000 105.460
61.71500 89.639
61.80000 90.722
61.88500 87.610
61.97000 95.368
62.05500 231.550
62.14000 137.704
62.22500 87.595
62.31000 86.303
62.39500 102.345
62.48000 89.568
62.56500 82.299
62.65000 88.778
62.73500 99.361
62.82000 82.533
62.90500 109.133
62.99000 107.625
63.07500 85.411
63.16000 112.330
63.24500 191.169
63.33000 1007.685
63.41500 263.791
63.50000 122.178
63.58500 109.992
63.67000 95.836
63.75500 97.108
63.84000 139.687
63.92500 833.011
64.01000 115.323
64.09500 107.489
64.18000 116.092
64.26500 174.133
64.35000 104.001
64.43500 97.560
64.52000 94.389
64.60500 134.080
64.69000 146.322
64.77500 116.448
64.86000 122.730
64.94500 402.393
65.03000 284.240
65.11500 122.501
65.20000 128.698
65.28500 139.333
65.37000 153.116
65.45500 124.270
65.54000 99.436
65.62500 82.598
65.71000 136.033
65.79500 90.480
65.88000 91.112
65.96500 113.653
66.05000 95.113
66.13500 111.380
66.22000 148.772
66.30500 562.248
66.39000 360.601
66.47500 123.344
66.56000 104.376
66.64500 185.448
66.73000 87.665
66.81500 78.421
66.90000 86.930
66.98500 89.030
67.07000 306.060
67.15500 92.965
67.24000 77.892
67.32500 74.368
67.41000 107.853
67.49500 111.770
67.58000 126.340
67.66500 92.420
67.75000 85.683
67.83500 87.103
67.92000 99.600
68.00500 95.946
68.09000 114.077
68.17500 95.889
68.26000 99.462
68.34500 84.000
68.43000 96.084
68.51500 80.042
68.60000 89.831
68.68500 141.727
68.77000 725.722
68.85500 307.067
68.94000 129.243
69.02500 111.726
69.11000 102.535
69.19500 102.477
69.28000 138.597
69.36500 200.582
69.45000 403.692
69.53500 287.998
69.62000 93.771
69.70500 92.900
69.79000 103.193
69.87500 85.821
69.96000 102.306
70.04500 94.880
70.13000 90.326
70.21500 110.894
70.30000 118.720
70.38500 215.227
70.47000 141.805
70.55000 108.091
70.63500 94.513
70.72000 86.251
70.80500 81.117
70.89000 82.372
70.97500 89.101
71.06000 116.808
71.14500 393.893
71.23000 117.443
71.31500 100.585
71.40000 82.095
71.48500 97.087
71.57000 87.437
71.65500 221.760
71.74000 106.882
71.82500 100.191
71.91000 96.242
71.99500 94.915
72.08000 205.371
72.16500 1344.177
72.25000 144.951
72.33500 94.658
72.42000 114.143
72.50500 121.834
72.59000 170.903
72.67500 104.449
72.76000 94.221
72.84500 90.186
72.93000 97.275
73.01500 104.423
73.10000 308.579
73.18500 462.859
73.27000 190.880
73.35500 134.285
73.44000 304.575
73.52500 187.978
73.61000 118.994
73.69500 107.510
73.78000 135.598
73.86500 172.850
73.95000 99.790
74.03500 85.987
74.12000 69.532
74.20500 80.289
74.29000 68.511
74.37500 80.524
74.46000 91.137
74.54500 110.410
74.63000 138.423
74.71500 133.680
74.80000 616.801
74.88500 201.162
74.97000 114.357
75.05500 105.649
75.14000 117.988
75.22500 94.061
75.31000 92.457
75.39500 108.573
75.48000 113.962
75.56500 343.890
75.65000 144.878
75.73500 83.534
75.82000 108.973
75.90500 97.552
75.99000 102.634
76.07500 201.558
76.16000 206.332
76.24500 98.751
76.33000 88.880
76.41500 94.746
76.50000 84.764
76.58500 78.981
76.67000 87.156
76.75500 92.910
76.84000 80.054
76.92500 87.475
77.01000 88.316
77.09500 89.310
77.18000 105.661
77.26500 85.168
77.35000 79.307
77.43500 80.598
77.52000 86.571
77.60500 86.125
77.69000 92.833
77.77500 128.385
77.86000 123.094
77.94500 88.124
78.03000 73.522
78.11500 70.764
78.20000 88.359
78.28500 70.970
78.37000 74.250
78.45500 76.593
78.54000 79.016
78.62500 78.422
78.71000 75.029
78.79500 82.017
78.88000 86.036
78.96500 89.395
79.05000 129.699
79.13500 73.536
79.22000 74.069
79.30500 84.228
79.39000 98.250
79.47500 226.062
79.56000 106.293
79.64500 82.731
79.73000 90.797
79.81500 69.052
79.90000 103.604
79.98500 185.870
80.07000 134.075
80.15500 90.142
80.24000 123.754
80.32500 114.682
80.41000 100.056
80.49500 97.504
80.58000 175.842
80.66500 267.192
80.75000 104.334
80.83500 110.745
80.92000 137.497
81.00500 153.636
81.09000 95.310
81.17500 81.715
81.26000 91.537
81.34500 103.763
81.43000 83.675
81.51500 81.930
81.60000 75.600
81.68500 72.458
81.77000 89.614
81.85500 75.949
81.94000 92.333
82.02500 106.247
82.11000 134.260
82.19500 475.659
82.28000 289.206
82.36500 241.094
82.45000 109.856
82.53500 155.435
82.62000 209.261
82.70500 98.071
82.79000 93.227
82.87500 200.911
82.96000 128.078
83.04500 97.391
83.13000 105.894
83.21500 121.197
83.30000 415.203
83.38500 199.102
83.47000 100.794
83.55500 96.545
83.64000 99.270
83.72500 78.698
83.81000 87.883
83.89500 80.278
83.98000 80.033
84.06500 76.048
84.15000 90.909
84.23500 77.854
84.32000 89.527
84.40500 88.018
84.49000 131.155
84.57500 123.388
84.66000 147.036
84.74500 89.649
84.83000 88.026
84.91500 82.889
85.00000 90.853
85.08500 149.551
85.17000 103.708
85.25500 75.766
85.34000 72.979
85.42500 91.351
85.51000 79.813
85.59500 86.446
85.68000 79.554
85.76500 76.999
85.85000 77.662
85.93500 78.096
86.02000 103.631
86.10500 186.016
86.19000 277.367
86.27500 110.758
86.36000 99.889
86.44500 77.419
86.53000 98.169
86.61500 69.815
86.70000 72.688
86.78500 85.537
86.87000 87.399
86.95500 83.535
87.04000 102.627
87.12500 206.625
87.21000 130.814
87.29500 119.638
87.38000 113.368
87.46500 93.844
87.55000 118.914
87.63500 314.628
87.72000 284.966
87.80500 126.270
87.89000 158.179
87.97500 156.425
88.06000 145.330
88.14500 162.652
88.23000 137.725
88.31500 430.109
88.40000 160.121
88.48500 124.550
88.57000 250.170
88.65500 500.452
88.74000 131.176
88.82500 108.091
88.91000 97.571
88.99500 149.252
89.08000 106.770
89.16500 90.956
89.25000 97.024
89.33500 78.398
89.42000 91.493
89.50500 80.696
89.59000 78.511
89.67500 82.592
89.76000 82.320
89.84500 112.320
89.93000 168.878
90.01500 176.914
90.10000 112.615
90.18500 72.954
90.27000 86.089
90.35500 82.192
90.44000 87.320
90.52000 63.879
90.60500 66.859
90.69000 79.487
90.77500 75.876
90.86000 92.606
90.94500 120.700
91.03000 119.568
91.11500 88.979
91.20000 86.246
91.28500 93.049
91.37000 81.001
91.45500 77.617
91.54000 79.504
91.62500 83.934
91.71000 77.955
91.79500 65.970
91.88000 70.818
91.96500 72.300
92.05000 78.293
92.13500 71.595
92.22000 77.418
92.30500 80.272
92.39000 78.241
92.47500 91.562
92.56000 80.873
92.64500 103.685
92.73000 195.476
92.81500 99.948
92.90000 86.328
92.98500 94.254
93.07000 138.595
93.15500 98.480
93.24000 138.961
93.32500 94.243
93.41000 100.048
93.49500 86.990
93.58000 102.323
93.66500 141.402
93.75000 207.236
93.83500 191.138
93.92000 90.913
94.00500 82.511
94.09000 77.680
94.17500 88.337
94.26000 73.863
94.34500 102.117
94.43000 79.319
94.51500 84.983
94.60000 81.773
94.68500 83.666
94.77000 78.715
94.85500 79.330
94.94000 78.828
95.02500 79.507
95.11000 70.761
95.19500 88.840
95.28000 67.071
95.36500 94.232
95.45000 91.518
95.53500 73.030
95.62000 94.084
95.70500 188.365
95.79000 172.761
95.87500 107.023
95.96000 111.555
96.04500 91.632
96.13000 99.908
96.21500 169.303
96.30000 232.226
96.38500 108.314
96.47000 136.687
96.55500 359.412
96.64000 186.292
96.72500 112.224
96.81000 111.288
96.89500 127.050
96.98000 102.240
97.06500 86.299
97.15000 93.002
97.23500 76.914
97.32000 89.644
97.40500 85.999
97.49000 100.435
97.57500 182.712
97.66000 189.211
97.74500 105.681
97.83000 163.067
97.91500 178.734
98.00000 104.416
98.08500 81.934
98.17000 75.019
98.25500 90.513
98.34000 84.494
98.42500 87.510
98.51000 104.417
98.59500 180.132
98.68000 90.530
98.76500 71.344
98.85000 91.805
98.93500 86.096
99.02000 91.787
99.10500 121.665
99.19000 107.577
99.27500 88.598
99.36000 97.211
99.44500 139.666
99.53000 97.078
99.61500 81.527
99.70000 83.573
99.78500 191.368
99.87000 118.122
99.95500 90.124
100.04 81.261
100.125 86.592
100.21 72.010
100.295 67.612
100.38 79.139
100.465 81.818
100.55 75.331
100.635 65.375
100.72 80.397
100.805 84.295
100.89 70.034
100.975 82.014
101.06 76.546
101.145 81.709
101.23 88.501
101.315 126.136
101.4 96.189
101.485 74.842
101.57 82.944
101.655 68.955
101.74 72.841
101.825 88.201
101.91 91.704
101.995 138.090
102.08 134.664
102.165 74.941
102.25 105.401
102.335 90.458
102.42 106.866
102.505 214.710
102.59 100.534
102.675 94.808
102.76 80.610
102.845 77.374
102.93 87.545
103.015 92.658
103.1 74.531
103.185 83.929
103.27 78.380
103.355 90.295
103.44 83.814
103.525 71.513
103.61 74.204
103.695 66.034
103.78 64.085
103.865 73.318
103.95 97.062
104.035 124.352
104.12 83.308
104.205 96.405
104.29 127.675
104.375 105.529
104.46 79.850
104.545 85.188
104.63 77.419
104.715 95.198
104.8 79.165
104.885 92.218
104.97 81.153
105.055 91.624
105.14 86.782
105.225 105.449
105.31 235.152
105.395 340.608
105.48 176.833
105.565 95.797
105.65 79.849
105.735 61.723
105.82 79.748
105.905 73.174
105.99 57.768
106.075 90.106
106.16 88.857
106.245 85.998
106.33 125.414
106.415 162.662
106.5 95.068
106.585 85.267
106.67 107.964
106.755 96.184
106.84 143.420
106.925 219.523
107.01 245.034
107.095 127.816
107.18 112.207
107.265 76.672
107.35 71.806
107.435 92.266
107.52 76.606
107.605 87.336
107.69 71.453
107.775 104.178
107.86 148.880
107.945 122.555
108.03 74.062
108.115 81.584
108.2 78.170
108.285 77.055
108.37 86.976
108.455 80.603
108.54 80.609
108.625 75.391
108.71 62.062
108.795 80.542
108.88 79.487
108.965 74.122
109.05 73.986
109.135 83.603
109.22 91.304
109.305 103.467
109.39 224.637
109.475 100.961
109.56 95.850
109.645 71.659
109.73 78.209
109.815 66.807
109.9 90.699
109.985 72.495
110.07 82.434
110.155 72.885
110.24 77.464
110.325 110.942
110.41 104.344
110.495 85.770
110.575 75.536
110.66 85.691
110.745 83.572
110.83 95.540
110.915 121.776
111 192.350
111.085 135.042
111.17 99.882
111.255 82.588
111.34 99.353
111.425 79.698
111.51 96.024
111.595 87.810
111.68 120.189
111.765 108.913
111.85 104.109
111.935 120.234
112.02 308.871
112.105 127.649
112.19 86.356
112.275 86.523
112.36 74.874
112.445 90.681
112.53 74.846
112.615 74.846
112.7 83.024
112.785 76.056
112.87 89.710
112.955 106.876
113.04 80.117
113.125 101.174
113.21 91.613
113.295 95.521
113.38 125.427
113.465 85.943
113.55 76.405
113.635 81.813
113.72 71.998
113.805 71.446
113.89 55.000
113.975 70.740
114.06 76.528
114.145 75.874
114.23 72.215
114.315 70.655
114.4 75.465
114.485 65.170
114.57 73.264
114.655 83.443
114.74 62.146
114.825 68.260
114.91 92.203
114.995 78.956
115.08 86.679
115.165 101.333
115.25 81.438
115.335 76.934
115.42 80.061
115.505 81.174
115.59 78.261
115.675 84.447
115.76 123.749
115.845 304.324
115.93 179.205
116.015 117.760
116.1 102.734
116.185 92.291
116.27 82.387
116.355 83.170
116.44 90.310
116.525 155.651
116.61 103.648
116.695 96.761
116.78 88.967
116.865 68.924
116.95 71.326
117.035 65.931
117.12 68.249
117.205 58.145
117.29 78.884
117.375 84.783
117.46 87.258
117.545 87.031
117.63 93.690
117.715 163.852
117.8 107.002
117.885 73.041
117.97 71.087
118.055 68.893
118.14 74.512
118.225 75.845
118.31 60.196
118.395 67.061
118.48 60.403
118.565 75.199
118.65 86.433
118.735 74.756
118.82 97.711
118.905 85.962
118.99 88.951
119.075 73.977
119.16 81.900
119.245 81.864
119.33 123.849
119.415 81.009
119.5 82.177
119.585 65.223
119.67 88.638
119.755 98.137
119.84 70.661
119.925 79.585
120.01 87.177
120.095 91.623
120.18 106.290
120.265 85.639
120.35 90.615
120.435 99.348
120.52 122.840
120.605 92.276
120.69 95.817
120.775 83.524
120.86 194.088
120.945 148.253
121.03 95.022
121.115 94.555
121.2 83.307
121.285 86.712
121.37 92.090
121.455 79.649
121.54 94.960
121.625 79.503
121.71 73.600
121.795 66.812
121.88 76.443
121.965 86.477
122.05 113.095
122.135 140.173
122.22 92.295
122.305 109.506
122.39 107.532
122.475 95.164
122.56 65.777
122.645 80.938
122.73 59.977
122.815 64.961
122.9 72.085
122.985 76.097
123.07 70.919
123.155 94.897
123.24 129.170
123.325 130.696
123.41 85.993
123.495 83.582
123.58 96.695
123.665 88.880
123.75 109.182
123.835 123.232
123.92 84.186
124.005 81.818
124.09 74.783
124.175 75.369
124.26 70.061
124.345 66.203
124.43 76.212
124.515 75.176
124.6 64.882
124.685 65.530
124.77 69.605
124.855 73.653
124.94 74.462
125.025 63.826
125.11 60.861
125.195 68.106
125.28 90.849
125.365 80.576
125.45 68.315
125.535 86.913
125.62 67.968
125.705 67.403
125.79 63.408
125.875 80.619
125.96 72.105
126.045 76.261
126.13 56.534
126.215 84.474
126.3 78.031
126.385 76.365
126.47 70.077
126.555 69.690
126.64 90.727
126.725 144.427
126.81 94.023
126.895 80.091
126.98 70.961
127.065 65.561
127.15 64.904
127.235 63.254
127.32 70.267
127.405 73.767
127.49 78.553
127.575 55.037
127.66 79.528
127.745 72.168
127.83 77.402
127.915 78.465
128 81.299
128.085 75.994
128.17 73.415
128.255 82.000
128.34 83.105
128.425 84.483
128.51 99.406
128.595 99.908
128.68 113.680
128.765 101.044
128.85 86.610
128.935 105.660
129.02 103.599
129.105 113.414
129.19 126.577
129.275 100.960
129.36 97.867
129.445 159.724
129.53 146.599
129.615 82.739
129.7 91.562
129.785 96.529
129.87 70.283
129.955 72.388
130.04 79.904
130.125 77.989
130.21 82.000
130.295 81.578
130.38 69.232
130.465 71.179
130.5 69.159