File: Data/Materials_HUB_Synchrotron_XRD/CYJ_LPSCl6151_gc_XRD.xy
10.00000 1538.500
10.08500 1689.900
10.17000 1608.800
10.25500 1647.300
10.34000 1541.600
10.42500 1547.100
10.51000 1480.000
10.59500 1399.300
10.68000 1326.200
10.76500 1321.000
10.85000 1439.200
10.93500 1326.000
11.02000 1332.000
11.10500 1312.700
11.19000 1221.400
11.27500 1113.700
11.36000 1172.200
11.44500 1210.800
11.53000 1212.100
11.61500 1170.100
11.70000 1174.700
11.78500 1114.800
11.87000 1073.400
11.95500 1148.000
12.04000 1000.900
12.12500 1128.800
12.21000 1013.900
12.29500 1012.600
12.38000 984.800
12.46500 1036.000
12.55000 942.900
12.63500 1064.500
12.72000 981.600
12.80500 905.400
12.89000 917.600
12.97500 969.800
13.06000 979.300
13.14500 948.100
13.23000 925.000
13.31500 906.500
13.40000 866.000
13.48500 906.100
13.57000 911.300
13.65500 906.900
13.74000 865.900
13.82500 897.400
13.91000 870.000
13.99500 795.800
14.08000 838.200
14.16500 839.200
14.25000 833.700
14.33500 904.800
14.42000 893.700
14.50500 825.600
14.59000 841.300
14.67500 916.000
14.76000 807.100
14.84500 873.800
14.93000 910.400
15.01500 854.800
15.10000 834.300
15.18500 905.600
15.27000 868.900
15.35500 913.500
15.44000 913.900
15.52500 1037.500
15.61000 4805.900
15.69500 1079.200
15.78000 908.700
15.86500 941.400
15.95000 938.600
16.03500 1015.500
16.12000 878.600
16.20500 988.600
16.29000 966.000
16.37500 988.100
16.46000 933.200
16.54500 993.600
16.63000 1085.400
16.71500 1005.800
16.80000 1035.100
16.88500 1138.500
16.97000 1120.900
17.05500 1014.000
17.14000 1083.600
17.22500 1097.300
17.31000 1114.800
17.39500 1128.000
17.48000 1115.300
17.56500 1108.400
17.65000 1171.100
17.73500 1120.800
17.82000 1210.200
17.90500 1188.600
17.99000 1248.300
18.07500 3601.200
18.16000 1298.600
18.24500 1244.900
18.33000 1253.800
18.41500 1229.900
18.50000 1160.500
18.58500 1230.800
18.67000 1257.100
18.75500 1224.700
18.84000 1231.400
18.92500 1268.500
19.01000 1336.700
19.09500 1251.800
19.18000 1216.200
19.26500 1219.600
19.35000 1262.500
19.43500 1305.800
19.52000 1215.700
19.60500 1270.500
19.69000 1214.100
19.77500 1207.600
19.86000 1239.900
19.94500 1236.000
20.03000 1175.700
20.11500 1239.200
20.20000 1238.400
20.28500 1179.400
20.37000 1187.500
20.45500 1130.200
20.54000 1083.600
20.62500 1095.900
20.71000 1080.600
20.79500 1070.900
20.88000 1009.900
20.96500 906.700
21.05000 1036.800
21.13500 1029.900
21.22000 1027.100
21.30500 995.500
21.39000 930.300
21.47500 960.300
21.56000 845.800
21.64500 930.200
21.73000 856.800
21.81500 844.600
21.90000 781.900
21.98500 842.800
22.07000 767.500
22.15500 780.900
22.24000 820.600
22.32500 768.500
22.41000 737.900
22.49500 724.900
22.58000 702.300
22.66500 659.300
22.75000 677.600
22.83500 714.800
22.92000 659.500
23.00500 704.600
23.09000 676.100
23.17500 628.500
23.26000 652.900
23.34500 552.000
23.43000 600.200
23.51500 617.100
23.60000 564.700
23.68500 545.900
23.77000 557.400
23.85500 548.600
23.94000 533.600
24.02500 542.200
24.11000 572.900
24.19500 487.400
24.28000 519.800
24.36500 554.900
24.45000 496.400
24.53500 491.900
24.62000 457.500
24.70500 474.400
24.79000 498.200
24.87500 445.100
24.96000 503.100
25.04500 460.000
25.13000 423.800
25.21500 467.200
25.30000 488.200
25.38500 457.000
25.47000 442.900
25.55500 691.800
25.64000 8548.700
25.72500 639.700
25.81000 440.900
25.89500 447.500
25.98000 438.200
26.06500 416.100
26.15000 368.000
26.23500 390.500
26.32000 356.900
26.40500 390.500
26.49000 398.800
26.57500 374.700
26.66000 379.900
26.74500 374.800
26.83000 362.100
26.91500 364.900
27.00000 384.900
27.08500 374.000
27.17000 352.300
27.25500 346.600
27.34000 380.900
27.42500 378.500
27.51000 364.300
27.59500 349.200
27.68000 341.300
27.76500 344.700
27.85000 324.800
27.93500 310.600
28.02000 324.900
28.10500 321.800
28.19000 312.100
28.27500 305.500
28.36000 344.000
28.44500 352.600
28.53000 300.900
28.61500 302.400
28.70000 362.100
28.78500 312.600
28.87000 328.500
28.95500 296.100
29.04000 305.000
29.12500 372.100
29.21000 409.500
29.29500 340.400
29.38000 306.100
29.46500 323.300
29.55000 295.000
29.63500 296.800
29.72000 298.600
29.80500 378.100
29.89000 320.200
29.97500 368.500
30.06000 596.200
30.14500 4799.500
30.23000 1028.100
30.31500 367.700
30.40000 323.700
30.48500 294.200
30.57000 283.800
30.65500 296.500
30.74000 302.100
30.82500 349.100
30.91000 289.900
30.99500 263.900
31.08000 301.200
31.16500 324.200
31.25000 307.800
31.33500 299.900
31.42000 368.800
31.50500 1468.100
31.59000 2257.500
31.67500 389.800
31.76000 286.500
31.84500 264.400
31.93000 244.300
32.01500 302.500
32.10000 267.000
32.18500 298.200
32.27000 282.800
32.35500 274.400
32.44000 243.400
32.52500 293.300
32.61000 238.400
32.69500 235.000
32.78000 260.500
32.86500 230.600
32.95000 239.900
33.03500 252.500
33.12000 237.900
33.20500 241.400
33.29000 256.300
33.37500 238.700
33.46000 235.000
33.54500 254.600
33.63000 232.600
33.71500 254.200
33.80000 252.200
33.88500 277.200
33.97000 238.600
34.05500 202.800
34.14000 232.400
34.22500 212.200
34.31000 234.200
34.39500 244.900
34.48000 244.800
34.56500 201.500
34.65000 234.700
34.73500 199.100
34.82000 190.700
34.90500 204.800
34.99000 186.000
35.07500 205.500
35.16000 166.900
35.24500 200.100
35.33000 191.200
35.41500 180.300
35.50000 166.400
35.58500 192.400
35.67000 152.300
35.75500 174.600
35.84000 141.300
35.92500 165.600
36.01000 170.200
36.09500 176.700
36.18000 173.100
36.26500 151.000
36.35000 152.700
36.43500 178.000
36.52000 187.300
36.60500 245.700
36.69000 151.400
36.77500 154.000
36.86000 142.800
36.94500 137.400
37.03000 143.500
37.11500 143.700
37.20000 146.500
37.28500 119.000
37.37000 144.200
37.45500 146.000
37.54000 150.000
37.62500 126.100
37.71000 141.400
37.79500 145.600
37.88000 120.700
37.96500 127.500
38.05000 124.500
38.13500 116.100
38.22000 125.500
38.30500 119.200
38.39000 115.000
38.47500 111.500
38.56000 106.200
38.64500 119.400
38.73000 90.700
38.81500 103.400
38.90000 94.200
38.98500 113.800
39.07000 108.900
39.15500 112.100
39.24000 112.600
39.32500 94.100
39.41000 117.300
39.49500 108.500
39.58000 95.300
39.66500 95.700
39.75000 99.800
39.83500 88.200
39.92000 137.900
40.00500 960.800
40.09000 125.300
40.17500 94.100
40.26000 92.900
40.34500 91.800
40.43000 101.300
40.51500 110.600
40.60000 88.500
40.68500 88.700
40.77000 107.200
40.85500 100.600
40.94000 85.100
41.02500 94.000
41.11000 194.100
41.19500 80.900
41.28000 78.100
41.36500 92.000
41.45000 82.900
41.53500 75.600
41.62000 76.800
41.70500 81.600
41.79000 88.400
41.87500 80.900
41.96000 93.000
42.04500 67.000
42.13000 94.700
42.21500 77.800
42.30000 75.000
42.38500 66.100
42.47000 87.400
42.55500 68.400
42.64000 89.700
42.72500 67.000
42.81000 76.000
42.89500 75.100
42.98000 79.800
43.06500 74.800
43.15000 70.200
43.23500 82.300
43.32000 85.900
43.40500 64.000
43.49000 63.600
43.57500 77.400
43.66000 82.200
43.74500 64.100
43.83000 87.500
43.91500 74.800
44.00000 77.100
44.08500 82.700
44.17000 81.400
44.25500 85.100
44.34000 62.400
44.42500 90.100
44.51000 60.900
44.59500 78.900
44.68000 66.400
44.76500 80.000
44.85000 88.500
44.93500 91.500
45.02000 124.900
45.10500 304.300
45.19000 1452.900
45.27500 1037.000
45.36000 138.800
45.44500 100.200
45.53000 80.700
45.61500 70.300
45.70000 65.900
45.78500 89.500
45.87000 95.500
45.95500 70.700
46.04000 73.200
46.12500 74.800
46.21000 66.300
46.29500 60.500
46.38000 81.000
46.46500 69.100
46.55000 78.200
46.63500 76.900
46.72000 70.100
46.80500 60.000
46.89000 79.300
46.97500 74.400
47.06000 76.000
47.14500 70.800
47.23000 80.100
47.31500 80.500
47.40000 70.500
47.48500 49.900
47.57000 71.200
47.65500 85.100
47.74000 93.700
47.82500 81.800
47.91000 85.000
47.99500 228.700
48.08000 711.200
48.16500 2123.600
48.25000 143.800
48.33500 75.100
48.42000 78.400
48.50500 74.300
48.59000 66.900
48.67500 63.800
48.76000 67.500
48.84500 70.100
48.93000 55.400
49.01500 62.100
49.10000 87.900
49.18500 47.600
49.27000 59.000
49.35500 74.400
49.44000 62.600
49.52500 75.600
49.61000 73.000
49.69500 62.200
49.78000 60.900
49.86500 58.400
49.95000 61.500
50.03500 58.700
50.12000 67.700
50.20500 88.000
50.29000 69.400
50.37500 63.000
50.46000 74.300
50.54500 91.900
50.63000 87.500
50.71500 92.600
50.80000 71.600
50.88500 83.200
50.97000 86.800
51.05500 79.400
51.14000 63.900
51.22500 70.400
51.31000 71.900
51.39500 75.900
51.48000 67.200
51.56500 69.700
51.65000 82.000
51.73500 75.000
51.82000 66.500
51.90500 64.400
51.99000 75.000
52.07500 78.200
52.16000 83.300
52.24500 85.900
52.33000 95.400
52.41500 85.600
52.50000 143.600
52.58500 389.000
52.67000 1271.700
52.75500 2679.700
52.84000 185.200
52.92500 109.600
53.01000 93.000
53.09500 93.500
53.18000 86.100
53.26500 83.300
53.35000 83.900
53.43500 96.700
53.52000 82.600
53.60500 75.100
53.69000 69.400
53.77500 82.100
53.86000 80.200
53.94500 80.700
54.03000 93.900
54.11500 58.600
54.20000 59.500
54.28500 79.300
54.37000 64.400
54.45500 73.500
54.54000 70.000
54.62500 68.900
54.71000 56.700
54.79500 63.500
54.88000 72.200
54.96500 76.000
55.05000 86.300
55.13500 93.300
55.22000 129.800
55.30500 514.200
55.39000 357.300
55.47500 81.300
55.56000 76.900
55.64500 53.200
55.73000 70.100
55.81500 68.900
55.90000 76.100
55.98500 70.500
56.07000 84.800
56.15500 177.900
56.24000 162.400
56.32500 60.800
56.41000 69.000
56.49500 64.000
56.58000 54.400
56.66500 79.100
56.75000 66.600
56.83500 67.600
56.92000 64.700
57.00500 81.300
57.09000 78.900
57.17500 65.900
57.26000 69.900
57.34500 50.900
57.43000 74.200
57.51500 68.600
57.60000 56.800
57.68500 54.600
57.77000 53.100
57.85500 68.500
57.94000 69.900
58.02500 66.800
58.11000 70.600
58.19500 68.100
58.28000 63.900
58.36500 53.300
58.45000 61.700
58.53500 59.100
58.62000 72.400
58.70500 63.200
58.79000 65.800
58.87500 54.600
58.96000 70.700
59.04500 76.600
59.13000 73.600
59.21500 69.900
59.30000 77.300
59.38500 120.000
59.47000 376.100
59.55500 805.700
59.64000 101.400
59.72500 58.400
59.81000 75.300
59.89500 58.100
59.98000 70.500
60.06500 53.900
60.15000 56.100
60.23500 59.600
60.32000 66.300
60.40500 75.400
60.49000 54.900
60.57500 53.900
60.66000 58.300
60.74500 69.100
60.83000 69.600
60.91500 73.000
61.00000 67.800
61.08500 63.100
61.17000 59.500
61.25500 68.800
61.34000 67.000
61.42500 68.000
61.51000 54.200
61.59500 53.100
61.68000 77.800
61.76500 95.500
61.85000 168.000
61.93500 587.300
62.02000 239.000
62.10500 72.000
62.19000 56.800
62.27500 79.800
62.36000 66.600
62.44500 73.200
62.53000 86.700
62.61500 172.400
62.70000 473.900
62.78500 859.600
62.87000 90.600
62.95500 79.900
63.04000 53.600
63.12500 58.800
63.21000 63.600
63.29500 60.500
63.38000 60.200
63.46500 56.000
63.55000 55.900
63.63500 52.600
63.72000 65.300
63.80500 55.600
63.89000 56.500
63.97500 52.600
64.06000 49.100
64.14500 63.000
64.23000 47.100
64.31500 59.300
64.40000 53.100
64.48500 48.300
64.57000 80.500
64.65500 49.400
64.74000 50.400
64.82500 47.700
64.91000 57.900
64.99500 48.200
65.08000 61.800
65.16500 72.800
65.25000 51.300
65.33500 56.700
65.42000 53.900
65.50500 53.800
65.59000 66.700
65.67500 41.700
65.76000 55.200
65.84500 51.100
65.93000 58.200
66.01500 54.100
66.10000 45.800
66.18500 49.800
66.27000 53.300
66.35500 52.100
66.44000 61.200
66.52500 50.400
66.61000 43.200
66.69500 52.100
66.78000 55.400
66.86500 50.200
66.95000 53.600
67.03500 56.700
67.12000 55.600
67.20500 63.500
67.29000 67.800
67.37500 67.500
67.46000 56.500
67.54500 53.800
67.63000 68.200
67.71500 56.200
67.80000 54.100
67.88500 70.400
67.97000 66.800
68.05500 83.500
68.14000 208.500
68.22500 223.100
68.31000 57.700
68.39500 58.700
68.48000 55.100
68.56500 59.700
68.65000 54.300
68.73500 63.500
68.82000 80.900
68.90500 155.200
68.99000 169.600
69.07500 56.200
69.16000 42.000
69.24500 49.200
69.33000 53.700
69.41500 52.500
69.50000 56.900
69.58500 57.300
69.67000 41.800
69.75500 48.300
69.84000 52.500
69.92500 55.200
70.01000 53.400
70.09500 61.300
70.18000 48.200
70.26500 56.200
70.35000 51.400
70.43500 61.000
70.52000 55.300
70.60500 57.900
70.69000 50.000
70.77500 48.000
70.86000 42.800
70.94500 67.100
71.03000 65.100
71.11500 48.500
71.20000 52.700
71.28500 66.800
71.37000 59.900
71.45500 46.200
71.54000 62.300
71.62500 72.900
71.71000 103.100
71.79500 144.500
71.88000 325.400
71.96500 657.700
72.05000 114.100
72.13500 66.200
72.22000 64.800
72.30500 80.700
72.39000 67.900
72.47500 56.800
72.56000 67.500
72.64500 66.700
72.73000 61.000
72.81500 59.200
72.90000 60.400
72.98500 54.800
73.07000 52.800
73.15500 66.800
73.24000 53.400
73.32500 51.600
73.41000 53.500
73.49500 47.100
73.58000 75.400
73.66500 58.700
73.75000 70.300
73.83500 66.400
73.92000 88.700
74.00500 143.100
74.09000 358.800
74.17500 738.800
74.26000 173.100
74.34500 74.400
74.43000 67.100
74.51500 60.300
74.60000 71.600
74.68500 61.000
74.77000 54.800
74.85500 66.800
74.94000 68.800
75.02500 37.400
75.11000 65.700
75.19500 50.400
75.28000 59.900
75.36500 59.400
75.45000 76.800
75.53500 49.800
75.62000 62.000
75.70500 45.100
75.79000 41.400
75.87500 49.900
75.96000 51.300
76.04500 56.500
76.13000 51.700
76.21500 41.500
76.30000 56.300
76.38500 62.300
76.47000 50.500
76.55500 57.300
76.64000 49.600
76.72500 43.100
76.81000 52.200
76.89500 75.900
76.98000 54.900
77.06500 58.100
77.15000 52.000
77.23500 63.500
77.32000 57.700
77.40500 57.400
77.49000 68.900
77.57500 71.100
77.66000 99.500
77.74500 208.900
77.83000 366.600
77.91500 66.400
78.00000 59.000
78.08500 59.000
78.17000 59.500
78.25500 59.800
78.34000 63.600
78.42500 58.400
78.51000 52.600
78.59500 53.500
78.68000 48.000
78.76500 51.500
78.85000 65.800
78.93500 48.700
79.02000 62.500
79.10500 59.300
79.19000 55.500
79.27500 55.000
79.36000 48.700
79.44500 52.700
79.53000 58.400
79.61500 48.700
79.70000 53.800
79.78500 59.200
79.87000 55.800
79.95500 75.500
80.04000 58.000
80.12500 63.500
80.21000 57.300
80.29500 48.300
80.38000 60.900
80.46500 62.400
80.55000 60.100
80.63500 79.800
80.72000 81.400
80.80500 57.400
80.89000 59.800
80.97500 60.300
81.06000 62.400
81.14500 52.800
81.23000 50.900
81.31500 50.700
81.40000 56.500
81.48500 61.300
81.57000 45.000
81.65500 56.800
81.74000 43.800
81.82500 62.200
81.91000 43.700
81.99500 55.000
82.08000 47.900
82.16500 65.000
82.25000 64.200
82.33500 58.400
82.42000 61.100
82.50500 48.900
82.59000 67.700
82.67500 61.200
82.76000 46.400
82.84500 56.000
82.93000 64.300
83.01500 71.700
83.10000 62.200
83.18500 67.200
83.27000 84.100
83.35500 104.800
83.44000 202.900
83.52500 365.800
83.61000 200.100
83.69500 63.000
83.78000 75.900
83.86500 62.300
83.95000 53.700
84.03500 64.200
84.12000 54.100
84.20500 58.500
84.29000 51.700
84.37500 56.100
84.46000 54.600
84.54500 53.500
84.63000 58.200
84.71500 57.400
84.80000 56.700
84.88500 59.900
84.97000 65.400
85.05500 73.000
85.14000 54.600
85.22500 59.900
85.31000 68.300
85.39500 67.500
85.48000 105.600
85.56500 177.800
85.65000 392.500
85.73500 203.000
85.82000 75.900
85.90500 61.300
85.99000 73.300
86.07500 77.400
86.16000 88.400
86.24500 104.100
86.33000 301.100
86.41500 234.100
86.50000 69.000
86.58500 47.000
86.67000 73.900
86.75500 52.600
86.84000 59.100
86.92500 64.200
87.01000 58.000
87.09500 44.900
87.18000 57.300
87.26500 48.400
87.35000 54.500
87.43500 53.300
87.52000 56.000
87.60500 55.900
87.69000 57.300
87.77500 55.700
87.86000 49.400
87.94500 50.400
88.03000 64.800
88.11500 39.100
88.20000 46.800
88.28500 53.500
88.37000 42.300
88.45500 58.600
88.54000 55.200
88.62500 61.900
88.71000 57.400
88.79500 56.000
88.88000 54.400
88.96500 53.000
89.05000 50.000
89.13500 54.000
89.22000 57.400
89.30500 48.800
89.39000 57.000
89.47500 52.300
89.56000 45.800
89.64500 46.600
89.73000 45.400
89.81500 34.100
89.90000 57.300
89.98500 48.100
90.07000 51.900
90.15500 44.700
90.24000 53.300
90.32500 48.900
90.41000 56.100
90.49500 58.600
90.58000 63.800
90.66500 51.700
90.75000 47.500
90.83500 54.100
90.92000 53.500
91.00500 52.500
91.09000 70.900
91.17500 81.400
91.26000 131.000
91.34500 103.000
91.43000 80.700
91.51500 60.700
91.60000 51.800
91.68500 48.200
91.77000 63.900
91.85500 44.200
91.94000 64.800
92.02500 56.600
92.11000 65.000
92.19500 64.300
92.28000 48.800
92.36500 50.600
92.45000 41.800
92.53500 49.800
92.62000 54.700
92.70500 41.900
92.79000 68.000
92.87500 58.500
92.96000 53.700
93.04500 54.600
93.13000 62.100
93.21500 44.300
93.30000 65.100
93.38500 56.000
93.47000 72.000
93.55500 42.600
93.64000 52.500
93.72500 59.100
93.81000 45.900
93.89500 61.300
93.98000 54.000
94.06500 47.800
94.15000 54.600
94.23500 42.100
94.32000 59.300
94.40500 59.300
94.49000 67.900
94.57500 51.000
94.66000 82.800
94.74500 105.500
94.83000 199.700
94.91500 145.600
95.00000 77.700
95.08500 62.200
95.17000 54.700
95.25500 60.500
95.34000 52.500
95.42500 60.700
95.51000 62.700
95.59500 47.800
95.68000 42.000
95.76500 60.200
95.85000 60.000
95.93500 52.400
96.02000 58.600
96.10500 59.600
96.19000 43.700
96.27500 59.200
96.36000 67.600
96.44500 57.800
96.53000 55.100
96.61500 59.000
96.70000 60.300
96.78500 82.200
96.87000 103.400
96.95500 193.000
97.04000 204.400
97.12500 79.100
97.21000 48.900
97.29500 55.200
97.38000 57.100
97.46500 58.500
97.55000 54.700
97.63500 51.100
97.72000 61.500
97.80500 63.300
97.89000 54.700
97.97500 53.700
98.06000 66.700
98.14500 55.800
98.23000 59.800
98.31500 58.700
98.40000 65.100
98.48500 63.400
98.57000 60.700
98.65500 63.500
98.74000 53.900
98.82500 54.300
98.91000 74.500
98.99500 55.300
99.08000 54.600
99.16500 67.700
99.25000 71.300
99.33500 52.400
99.42000 49.700
99.50500 48.000
99.59000 67.400
99.67500 49.100
99.76000 52.700
99.84500 67.500
99.93000 72.700
100.015 58.100
100.1 78.200
100.185 89.300
100.27 84.700
100.355 121.900
100.44 195.100
100.525 402.800
100.61 319.700
100.695 109.300
100.78 69.400
100.865 57.500
100.95 65.800
101.035 75.100
101.12 69.800
101.205 59.100
101.29 56.300
101.375 61.600
101.46 61.400
101.545 52.300
101.63 80.900
101.715 61.400
101.8 65.800
101.885 50.700
101.97 68.100
102.055 60.900
102.14 55.200
102.225 67.500
102.31 53.700
102.395 67.300
102.48 64.800
102.565 52.500
102.65 102.500
102.735 89.300
102.82 90.600
102.905 79.100
102.99 59.800
103.075 52.700
103.16 60.100
103.245 45.700
103.33 66.400
103.415 62.100
103.5 72.200
103.585 62.800
103.67 48.200
103.755 64.100
103.84 65.400
103.925 71.700
104.01 52.600
104.095 63.300
104.18 58.400
104.265 59.900
104.35 55.600
104.435 50.000
104.52 48.200
104.605 52.600
104.69 49.600
104.775 56.900
104.86 67.300
104.945 65.700
105.03 55.500
105.115 59.200
105.2 69.500
105.285 67.900
105.37 59.500
105.455 69.400
105.54 61.000
105.625 61.100
105.71 54.700
105.795 56.600
105.88 51.900
105.965 66.400
106.05 65.000
106.135 86.400
106.22 123.700
106.305 222.400
106.39 230.000
106.475 137.400
106.56 74.100
106.645 61.500
106.73 63.900
106.815 58.800
106.9 56.500
106.985 66.700
107.07 61.100
107.155 78.900
107.24 52.300
107.325 63.800
107.41 52.200
107.495 56.500
107.58 42.900
107.665 52.100
107.75 60.800
107.835 71.300
107.92 54.100
108.005 68.200
108.09 57.400
108.175 54.300
108.26 65.900
108.345 67.300
108.43 82.700
108.515 125.900
108.6 124.200
108.685 106.600
108.77 69.400
108.855 60.600
108.94 69.300
109.025 72.100
109.11 83.900
109.195 102.000
109.28 133.900
109.365 119.500
109.45 76.600
109.535 57.400
109.62 57.900
109.705 58.300
109.79 51.600
109.875 60.000
109.96 55.900
110.045 66.600
110.13 47.300
110.215 51.500
110.3 45.600
110.385 49.700
110.47 43.500
110.555 55.800
110.64 51.300
110.725 55.600
110.81 42.200
110.895 40.300
110.98 55.800
111.065 51.400
111.15 51.900
111.235 56.200
111.32 57.300
111.405 60.200
111.49 56.800
111.575 53.200
111.66 55.300
111.745 48.000
111.83 53.600
111.915 55.600
112 50.600
112.085 49.000
112.17 49.300
112.255 45.400
112.34 55.300
112.425 58.500
112.51 55.100
112.595 51.000
112.68 60.300
112.765 60.500
112.85 59.700
112.935 37.500
113.02 50.400
113.105 58.100
113.19 44.800
113.275 49.400
113.36 42.100
113.445 59.200
113.53 68.500
113.615 53.000
113.7 57.700
113.785 56.100
113.87 49.300
113.955 59.400
114.04 59.700
114.125 48.900
114.21 62.000
114.295 47.000
114.38 50.500
114.465 63.000
114.55 79.100
114.635 78.800
114.72 76.600
114.805 60.000
114.89 58.300
114.975 56.200
115.06 53.500
115.145 51.800
115.23 47.100
115.315 60.900
115.4 89.300
115.485 66.200
115.57 63.300
115.655 44.700
115.74 50.500
115.825 54.300
115.91 61.500
115.995 61.100
116.08 58.400
116.165 49.100
116.25 52.100
116.335 56.500
116.42 54.800
116.505 44.200
116.59 50.300
116.675 62.000
116.76 43.800
116.845 45.900
116.93 61.000
117.015 43.800
117.1 58.300
117.185 64.900
117.27 58.900
117.355 42.800
117.44 59.100
117.525 49.900
117.61 56.600
117.695 63.400
117.78 55.700
117.865 55.800
117.95 66.100
118.035 62.100
118.12 63.000
118.205 55.300
118.29 61.100
118.375 61.900
118.46 98.400
118.545 96.900
118.63 115.100
118.715 95.500
118.8 61.300
118.885 47.500
118.97 48.000
119.055 44.700
119.14 58.000
119.225 59.100
119.31 59.400
119.395 46.100
119.48 55.200
119.565 60.000
119.65 46.500
119.735 54.000
119.82 48.600
119.905 47.600
119.99 56.300
120.075 52.800
120.16 65.100
120.245 48.600
120.33 37.900
120.415 51.200
120.5 54.300
120.585 69.800
120.67 69.100
120.755 67.600
120.84 64.200
120.925 82.900
121.01 107.100
121.095 93.400
121.18 63.900
121.265 57.200
121.35 49.100
121.435 45.200
121.52 47.000
121.605 50.800
121.69 55.400
121.775 47.800
121.86 49.900
121.945 56.600
122.03 70.000
122.115 54.100
122.2 58.800
122.285 58.700
122.37 53.000
122.455 55.100
122.54 53.200
122.625 44.000
122.71 45.100
122.795 44.500
122.88 60.600
122.965 58.300
123.05 49.800
123.135 45.900
123.22 40.500
123.305 51.500
123.39 44.200
123.475 37.500
123.56 61.400
123.645 52.100
123.73 48.200
123.815 46.300
123.9 58.000
123.985 52.500
124.07 48.700
124.155 55.300
124.24 54.700
124.325 53.100
124.41 55.000
124.495 50.500
124.58 52.800
124.665 62.100
124.75 57.700
124.835 54.100
124.92 62.300
125.005 63.900
125.09 78.800
125.175 92.400
125.26 102.900
125.345 107.800
125.43 86.100
125.515 60.100
125.6 58.100
125.685 53.100
125.77 66.300
125.855 52.400
125.94 52.800
126.025 53.800
126.11 47.600
126.195 65.300
126.28 55.100
126.365 49.700
126.45 51.000
126.535 55.500
126.62 65.800
126.705 47.100
126.79 52.300
126.875 54.800
126.96 58.600
127.045 54.700
127.13 60.200
127.215 44.700
127.3 66.300
127.385 60.300
127.47 51.400
127.555 36.100
127.64 51.000
127.725 65.200
127.81 72.900
127.895 73.700
127.98 77.700
128.065 63.100
128.15 58.100
128.235 65.000
128.32 54.400
128.405 61.300
128.49 59.100
128.575 62.300
128.66 81.300
128.745 60.000
128.83 66.500
128.915 68.200
129 58.400
129.085 64.000
129.17 49.600
129.255 43.700
129.34 62.000
129.425 55.400
129.51 47.300
129.595 53.200
129.68 65.000
129.765 44.900
129.85 51.100
129.935 50.200
130.02 48.500
130.105 57.500
130.19 60.200
130.275 46.800
130.36 40.100
130.445 55.200
130.5 46.900