File: Data/Materials_HUB_Synchrotron_XRD/CYJ_LPSI6151_gc_XRD.xy
10.00000 1586.500
10.08500 1582.400
10.17000 1539.700
10.25500 1546.200
10.34000 1361.800
10.42500 1380.500
10.51000 1351.100
10.59500 1304.300
10.68000 1307.200
10.76500 1375.500
10.85000 1196.100
10.93500 1263.100
11.02000 1184.600
11.10500 1205.000
11.19000 1230.600
11.27500 1198.700
11.36000 1105.800
11.44500 1042.200
11.53000 1006.400
11.61500 1139.200
11.70000 1022.800
11.78500 1147.300
11.87000 916.400
11.95500 969.000
12.04000 993.900
12.12500 1095.300
12.21000 1005.200
12.29500 954.200
12.38000 914.900
12.46500 843.200
12.55000 937.300
12.63500 918.100
12.72000 902.500
12.80500 884.000
12.89000 925.500
12.97500 880.600
13.06000 869.300
13.14500 897.000
13.23000 868.600
13.31500 877.600
13.40000 875.200
13.48500 847.400
13.57000 841.000
13.65500 877.800
13.74000 874.400
13.82500 803.100
13.91000 833.400
13.99500 857.200
14.08000 854.400
14.16500 805.400
14.25000 831.000
14.33500 877.300
14.42000 918.500
14.50500 777.900
14.59000 865.100
14.67500 837.700
14.76000 783.600
14.84500 848.600
14.93000 876.700
15.01500 863.400
15.10000 868.700
15.18500 1730.100
15.27000 886.800
15.35500 889.000
15.44000 817.200
15.52500 818.400
15.61000 941.600
15.69500 825.200
15.78000 844.900
15.86500 866.700
15.95000 893.200
16.03500 918.500
16.12000 907.200
16.20500 879.400
16.29000 921.500
16.37500 989.700
16.46000 944.900
16.54500 977.200
16.63000 996.800
16.71500 946.300
16.80000 947.500
16.88500 992.400
16.97000 883.800
17.05500 1136.100
17.14000 1002.000
17.22500 1096.200
17.31000 1062.300
17.39500 1173.400
17.48000 1551.500
17.56500 2283.200
17.65000 1177.300
17.73500 1147.800
17.82000 1173.600
17.90500 1148.600
17.99000 1145.300
18.07500 1170.900
18.16000 1159.600
18.24500 1126.200
18.33000 1127.800
18.41500 1183.600
18.50000 1146.400
18.58500 1203.700
18.67000 1159.700
18.75500 1161.000
18.84000 1183.000
18.92500 1171.000
19.01000 1209.400
19.09500 1174.400
19.18000 1217.200
19.26500 1168.100
19.35000 1128.600
19.43500 1195.800
19.52000 1105.400
19.60500 1186.000
19.69000 1172.200
19.77500 1159.800
19.86000 1148.200
19.94500 1175.100
20.03000 1100.800
20.11500 1094.100
20.20000 1109.800
20.28500 1009.800
20.37000 1038.800
20.45500 1077.500
20.54000 1039.200
20.62500 1034.200
20.71000 1013.900
20.79500 1050.600
20.88000 934.300
20.96500 971.400
21.05000 978.600
21.13500 921.500
21.22000 844.600
21.30500 951.900
21.39000 944.600
21.47500 920.900
21.56000 873.300
21.64500 870.100
21.73000 846.500
21.81500 848.800
21.90000 759.300
21.98500 759.100
22.07000 805.200
22.15500 728.500
22.24000 702.400
22.32500 726.100
22.41000 729.000
22.49500 671.300
22.58000 700.800
22.66500 674.400
22.75000 660.400
22.83500 620.500
22.92000 650.800
23.00500 560.500
23.09000 604.700
23.17500 575.300
23.26000 604.200
23.34500 585.300
23.43000 578.900
23.51500 563.900
23.60000 553.100
23.68500 550.100
23.77000 559.500
23.85500 513.500
23.94000 524.800
24.02500 535.800
24.11000 498.900
24.19500 466.500
24.28000 502.000
24.36500 470.300
24.45000 467.400
24.53500 480.900
24.62000 476.700
24.70500 566.800
24.79000 792.000
24.87500 6003.800
24.96000 1278.300
25.04500 596.400
25.13000 516.200
25.21500 448.200
25.30000 437.900
25.38500 494.800
25.47000 386.800
25.55500 391.700
25.64000 397.300
25.72500 425.900
25.81000 433.700
25.89500 371.800
25.98000 371.100
26.06500 389.700
26.15000 362.600
26.23500 331.700
26.32000 362.600
26.40500 358.500
26.49000 374.800
26.57500 364.800
26.66000 336.300
26.74500 343.900
26.83000 353.300
26.91500 377.500
27.00000 288.800
27.08500 317.500
27.17000 360.300
27.25500 356.300
27.34000 359.900
27.42500 311.900
27.51000 305.800
27.59500 342.800
27.68000 355.900
27.76500 383.000
27.85000 324.100
27.93500 342.400
28.02000 325.100
28.10500 289.200
28.19000 306.000
28.27500 310.800
28.36000 297.300
28.44500 285.300
28.53000 314.300
28.61500 309.200
28.70000 322.100
28.78500 289.500
28.87000 325.500
28.95500 351.100
29.04000 383.500
29.12500 416.900
29.21000 979.000
29.29500 21326.800
29.38000 744.700
29.46500 477.100
29.55000 391.500
29.63500 312.200
29.72000 311.000
29.80500 343.600
29.89000 320.900
29.97500 280.500
30.06000 290.400
30.14500 271.600
30.23000 305.300
30.31500 278.600
30.40000 320.800
30.48500 415.000
30.57000 1081.800
30.65500 1315.500
30.74000 394.000
30.82500 327.500
30.91000 269.100
30.99500 271.500
31.08000 280.600
31.16500 244.600
31.25000 242.000
31.33500 256.200
31.42000 263.600
31.50500 244.100
31.59000 257.000
31.67500 238.700
31.76000 224.900
31.84500 217.000
31.93000 241.300
32.01500 235.600
32.10000 246.700
32.18500 222.700
32.27000 240.600
32.35500 212.100
32.44000 242.800
32.52500 242.400
32.61000 251.800
32.69500 233.800
32.78000 203.300
32.86500 210.700
32.95000 209.800
33.03500 176.700
33.12000 213.100
33.20500 211.900
33.29000 211.500
33.37500 196.600
33.46000 216.600
33.54500 215.200
33.63000 197.900
33.71500 199.200
33.80000 198.300
33.88500 212.800
33.97000 190.800
34.05500 189.300
34.14000 200.700
34.22500 213.700
34.31000 200.700
34.39500 203.400
34.48000 204.200
34.56500 180.800
34.65000 199.900
34.73500 165.800
34.82000 165.900
34.90500 178.800
34.99000 198.600
35.07500 183.400
35.16000 182.400
35.24500 182.400
35.33000 170.400
35.41500 188.300
35.50000 762.600
35.58500 213.800
35.67000 162.800
35.75500 169.100
35.84000 136.000
35.92500 150.200
36.01000 153.000
36.09500 156.200
36.18000 149.500
36.26500 159.000
36.35000 158.500
36.43500 143.100
36.52000 162.500
36.60500 142.400
36.69000 144.700
36.77500 136.200
36.86000 151.600
36.94500 128.200
37.03000 157.700
37.11500 135.900
37.20000 125.700
37.28500 113.200
37.37000 127.900
37.45500 121.700
37.54000 152.600
37.62500 128.900
37.71000 124.100
37.79500 115.300
37.88000 134.000
37.96500 128.800
38.05000 118.300
38.13500 108.000
38.22000 107.400
38.30500 126.700
38.39000 107.200
38.47500 123.700
38.56000 121.900
38.64500 131.500
38.73000 186.700
38.81500 1795.800
38.90000 156.000
38.98500 107.600
39.07000 132.600
39.15500 115.800
39.24000 117.700
39.32500 106.500
39.41000 98.700
39.49500 93.500
39.58000 116.900
39.66500 121.300
39.75000 186.800
39.83500 974.300
39.92000 276.300
40.00500 124.100
40.09000 132.800
40.17500 100.000
40.26000 89.000
40.34500 102.600
40.43000 101.400
40.51500 97.100
40.60000 111.000
40.68500 94.000
40.77000 79.000
40.85500 83.800
40.94000 96.600
41.02500 101.600
41.11000 88.400
41.19500 99.500
41.28000 91.600
41.36500 87.000
41.45000 66.800
41.53500 71.900
41.62000 76.000
41.70500 78.400
41.79000 76.700
41.87500 58.800
41.96000 88.700
42.04500 89.500
42.13000 90.300
42.21500 88.600
42.30000 88.100
42.38500 78.200
42.47000 70.700
42.55500 92.000
42.64000 83.200
42.72500 87.100
42.81000 65.400
42.89500 86.700
42.98000 87.700
43.06500 73.700
43.15000 90.400
43.23500 73.100
43.32000 91.100
43.40500 94.500
43.49000 112.200
43.57500 118.700
43.66000 174.900
43.74500 304.000
43.83000 2848.400
43.91500 574.000
44.00000 215.400
44.08500 137.600
44.17000 115.200
44.25500 101.000
44.34000 82.200
44.42500 92.800
44.51000 74.500
44.59500 77.200
44.68000 57.700
44.76500 75.600
44.85000 79.200
44.93500 65.600
45.02000 72.800
45.10500 69.200
45.19000 83.600
45.27500 79.700
45.36000 65.900
45.44500 69.500
45.53000 90.700
45.61500 72.000
45.70000 84.900
45.78500 71.700
45.87000 76.300
45.95500 83.600
46.04000 66.600
46.12500 81.200
46.21000 88.000
46.29500 88.400
46.38000 97.500
46.46500 119.800
46.55000 262.600
46.63500 1921.300
46.72000 619.100
46.80500 210.600
46.89000 105.600
46.97500 103.600
47.06000 88.000
47.14500 88.800
47.23000 73.400
47.31500 66.700
47.40000 63.100
47.48500 71.500
47.57000 73.000
47.65500 67.800
47.74000 69.400
47.82500 69.900
47.91000 53.600
47.99500 71.300
48.08000 49.600
48.16500 64.100
48.25000 58.000
48.33500 58.600
48.42000 52.300
48.50500 66.500
48.59000 43.800
48.67500 47.300
48.76000 49.600
48.84500 76.800
48.93000 63.600
49.01500 60.000
49.10000 63.400
49.18500 68.600
49.27000 54.800
49.35500 50.000
49.44000 48.000
49.52500 60.900
49.61000 65.400
49.69500 69.300
49.78000 78.200
49.86500 69.500
49.95000 70.100
50.03500 77.000
50.12000 59.200
50.20500 78.000
50.29000 69.800
50.37500 77.500
50.46000 67.000
50.54500 80.400
50.63000 74.400
50.71500 79.800
50.80000 97.800
50.88500 143.300
50.97000 276.000
51.05500 1959.600
51.14000 767.300
51.22500 204.500
51.31000 139.500
51.39500 108.800
51.48000 78.700
51.56500 72.400
51.65000 74.500
51.73500 58.400
51.82000 69.000
51.90500 68.200
51.99000 70.000
52.07500 66.100
52.16000 58.600
52.24500 66.100
52.33000 75.300
52.41500 60.900
52.50000 59.700
52.58500 56.100
52.67000 63.000
52.75500 66.100
52.84000 68.300
52.92500 67.200
53.01000 57.400
53.09500 47.400
53.18000 64.100
53.26500 66.100
53.35000 68.000
53.43500 64.600
53.52000 84.100
53.60500 285.600
53.69000 81.100
53.77500 61.400
53.86000 65.000
53.94500 59.900
54.03000 58.600
54.11500 81.500
54.20000 80.900
54.28500 105.800
54.37000 275.900
54.45500 1110.900
54.54000 131.500
54.62500 90.600
54.71000 63.700
54.79500 67.500
54.88000 72.000
54.96500 58.000
55.05000 65.000
55.13500 56.500
55.22000 58.500
55.30500 60.900
55.39000 56.900
55.47500 60.000
55.56000 51.400
55.64500 59.400
55.73000 57.700
55.81500 54.200
55.90000 69.000
55.98500 48.100
56.07000 61.200
56.15500 63.000
56.24000 60.900
56.32500 67.600
56.41000 57.400
56.49500 59.100
56.58000 58.100
56.66500 52.500
56.75000 63.600
56.83500 63.600
56.92000 56.500
57.00500 64.500
57.09000 66.800
57.17500 62.600
57.26000 75.700
57.34500 66.800
57.43000 113.600
57.51500 163.800
57.60000 578.200
57.68500 593.300
57.77000 137.200
57.85500 91.500
57.94000 79.500
58.02500 75.900
58.11000 52.200
58.19500 68.500
58.28000 66.000
58.36500 73.100
58.45000 63.900
58.53500 60.200
58.62000 58.900
58.70500 52.800
58.79000 63.100
58.87500 61.100
58.96000 67.200
59.04500 57.800
59.13000 60.900
59.21500 58.800
59.30000 55.400
59.38500 55.100
59.47000 35.000
59.55500 60.600
59.64000 59.800
59.72500 84.400
59.81000 104.000
59.89500 170.700
59.98000 1483.200
60.06500 140.400
60.15000 96.100
60.23500 63.100
60.32000 75.500
60.40500 74.700
60.49000 75.700
60.57500 136.900
60.66000 225.000
60.74500 1976.300
60.83000 176.500
60.91500 103.300
61.00000 97.900
61.08500 99.500
61.17000 72.800
61.25500 64.800
61.34000 47.400
61.42500 75.000
61.51000 62.000
61.59500 57.700
61.68000 50.300
61.76500 57.500
61.85000 64.100
61.93500 57.100
62.02000 56.300
62.10500 58.800
62.19000 52.000
62.27500 53.100
62.36000 35.800
62.44500 67.200
62.53000 48.500
62.61500 52.000
62.70000 66.100
62.78500 41.200
62.87000 68.200
62.95500 54.200
63.04000 55.800
63.12500 49.300
63.21000 51.400
63.29500 76.700
63.38000 47.400
63.46500 60.200
63.55000 46.700
63.63500 70.300
63.72000 78.400
63.80500 66.000
63.89000 57.700
63.97500 53.500
64.06000 57.400
64.14500 40.300
64.23000 54.500
64.31500 52.100
64.40000 63.700
64.48500 49.800
64.57000 63.900
64.65500 54.300
64.74000 63.100
64.82500 58.500
64.91000 55.800
64.99500 62.500
65.08000 54.800
65.16500 59.500
65.25000 68.400
65.33500 68.200
65.42000 62.700
65.50500 63.300
65.59000 55.800
65.67500 75.600
65.76000 77.300
65.84500 88.900
65.93000 159.100
66.01500 103.800
66.10000 59.400
66.18500 63.200
66.27000 60.500
66.35500 61.200
66.44000 73.700
66.52500 83.800
66.61000 175.300
66.69500 1333.800
66.78000 127.900
66.86500 79.600
66.95000 72.800
67.03500 63.300
67.12000 75.500
67.20500 61.100
67.29000 72.200
67.37500 53.600
67.46000 81.500
67.54500 59.900
67.63000 58.100
67.71500 60.500
67.80000 58.600
67.88500 58.600
67.97000 64.800
68.05500 67.400
68.14000 52.600
68.22500 74.400
68.31000 51.800
68.39500 55.200
68.48000 74.300
68.56500 56.100
68.65000 59.000
68.73500 61.100
68.82000 68.900
68.90500 56.300
68.99000 72.000
69.07500 61.200
69.16000 69.500
69.24500 101.000
69.33000 105.200
69.41500 152.300
69.50000 553.200
69.58500 1968.700
69.67000 205.400
69.75500 147.500
69.84000 79.400
69.92500 87.000
70.01000 82.700
70.09500 91.700
70.18000 82.500
70.26500 79.800
70.35000 63.800
70.43500 65.200
70.52000 64.900
70.60500 65.400
70.69000 58.200
70.77500 66.000
70.86000 60.700
70.94500 71.800
71.03000 60.000
71.11500 85.000
71.20000 82.500
71.28500 67.600
71.37000 81.800
71.45500 102.400
71.54000 163.900
71.62500 579.100
71.71000 1244.800
71.79500 167.200
71.88000 110.600
71.96500 91.800
72.05000 58.900
72.13500 79.800
72.22000 63.000
72.30500 67.300
72.39000 62.800
72.47500 80.200
72.56000 67.300
72.64500 58.000
72.73000 68.000
72.81500 71.400
72.90000 72.800
72.98500 69.400
73.07000 49.500
73.15500 71.200
73.24000 63.700
73.32500 63.000
73.41000 51.100
73.49500 41.000
73.58000 49.400
73.66500 52.700
73.75000 64.700
73.83500 53.000
73.92000 59.000
74.00500 76.500
74.09000 78.700
74.17500 72.000
74.26000 59.300
74.34500 53.500
74.43000 55.800
74.51500 58.700
74.60000 53.800
74.68500 60.900
74.77000 60.300
74.85500 70.900
74.94000 68.700
75.02500 107.000
75.11000 288.200
75.19500 316.900
75.28000 80.600
75.36500 82.700
75.45000 74.400
75.53500 57.900
75.62000 48.400
75.70500 71.100
75.79000 65.400
75.87500 75.200
75.96000 58.200
76.04500 54.800
76.13000 61.200
76.21500 56.300
76.30000 66.300
76.38500 53.500
76.47000 57.000
76.55500 51.200
76.64000 61.800
76.72500 56.300
76.81000 74.900
76.89500 68.400
76.98000 52.500
77.06500 84.300
77.15000 103.700
77.23500 222.700
77.32000 68.800
77.40500 53.200
77.49000 56.100
77.57500 62.500
77.66000 85.100
77.74500 86.000
77.83000 165.500
77.91500 494.400
78.00000 88.200
78.08500 65.400
78.17000 82.300
78.25500 53.000
78.34000 58.500
78.42500 66.400
78.51000 52.000
78.59500 57.800
78.68000 53.600
78.76500 60.800
78.85000 59.100
78.93500 57.600
79.02000 59.300
79.10500 60.600
79.19000 51.700
79.27500 58.600
79.36000 60.400
79.44500 51.100
79.53000 61.000
79.61500 60.100
79.70000 53.500
79.78500 71.900
79.87000 64.900
79.95500 65.400
80.04000 67.300
80.12500 68.400
80.21000 92.700
80.29500 77.800
80.38000 94.200
80.46500 136.100
80.55000 383.900
80.63500 894.900
80.72000 119.700
80.80500 91.300
80.89000 90.400
80.97500 70.300
81.06000 61.000
81.14500 60.800
81.23000 61.200
81.31500 76.600
81.40000 56.700
81.48500 50.600
81.57000 66.500
81.65500 64.000
81.74000 70.000
81.82500 71.700
81.91000 79.100
81.99500 58.800
82.08000 65.900
82.16500 77.100
82.25000 67.600
82.33500 76.200
82.42000 86.800
82.50500 145.500
82.59000 494.500
82.67500 335.600
82.76000 123.300
82.84500 96.300
82.93000 73.100
83.01500 92.000
83.10000 88.900
83.18500 123.500
83.27000 434.400
83.35500 167.400
83.44000 75.500
83.52500 60.500
83.61000 67.700
83.69500 62.000
83.78000 62.400
83.86500 47.700
83.95000 55.000
84.03500 64.900
84.12000 58.100
84.20500 60.100
84.29000 55.500
84.37500 51.700
84.46000 57.000
84.54500 54.600
84.63000 46.800
84.71500 74.500
84.80000 61.300
84.88500 55.000
84.97000 58.600
85.05500 38.100
85.14000 68.600
85.22500 55.900
85.31000 56.800
85.39500 45.400
85.48000 65.100
85.56500 55.800
85.65000 38.500
85.73500 67.600
85.82000 42.400
85.90500 70.200
85.99000 134.200
86.07500 76.800
86.16000 66.000
86.24500 63.000
86.33000 52.000
86.41500 48.500
86.50000 53.000
86.58500 46.600
86.67000 54.300
86.75500 49.000
86.84000 61.300
86.92500 47.900
87.01000 64.100
87.09500 53.400
87.18000 48.500
87.26500 48.000
87.35000 60.900
87.43500 57.300
87.52000 56.300
87.60500 49.300
87.69000 58.800
87.77500 56.400
87.86000 77.800
87.94500 133.200
88.03000 74.700
88.11500 50.400
88.20000 67.500
88.28500 60.300
88.37000 55.700
88.45500 76.100
88.54000 98.600
88.62500 334.600
88.71000 117.500
88.79500 85.300
88.88000 59.400
88.96500 68.900
89.05000 56.000
89.13500 55.400
89.22000 43.900
89.30500 65.600
89.39000 75.500
89.47500 54.300
89.56000 62.400
89.64500 55.100
89.73000 51.700
89.81500 50.700
89.90000 64.100
89.98500 62.800
90.07000 50.000
90.15500 44.400
90.24000 41.500
90.32500 61.700
90.41000 81.300
90.49500 49.500
90.58000 55.700
90.66500 59.200
90.75000 56.400
90.83500 72.500
90.92000 59.200
91.00500 65.200
91.09000 70.600
91.17500 72.600
91.26000 221.700
91.34500 272.300
91.43000 77.800
91.51500 65.600
91.60000 59.600
91.68500 77.800
91.77000 68.400
91.85500 47.800
91.94000 67.600
92.02500 69.500
92.11000 53.900
92.19500 58.100
92.28000 63.700
92.36500 53.300
92.45000 62.800
92.53500 68.500
92.62000 63.800
92.70500 65.800
92.79000 77.800
92.87500 57.100
92.96000 65.000
93.04500 50.600
93.13000 87.500
93.21500 197.900
93.30000 598.500
93.38500 147.100
93.47000 88.200
93.55500 72.300
93.64000 56.200
93.72500 77.100
93.81000 77.600
93.89500 61.200
93.98000 61.900
94.06500 70.800
94.15000 89.600
94.23500 55.600
94.32000 73.700
94.40500 69.500
94.49000 72.500
94.57500 70.900
94.66000 55.500
94.74500 69.900
94.83000 66.400
94.91500 65.100
95.00000 67.800
95.08500 48.100
95.17000 66.300
95.25500 59.800
95.34000 75.500
95.42500 54.400
95.51000 59.000
95.59500 54.600
95.68000 46.500
95.76500 58.200
95.85000 76.800
95.93500 64.300
96.02000 63.400
96.10500 59.800
96.19000 87.200
96.27500 104.100
96.36000 88.400
96.44500 115.600
96.53000 186.100
96.61500 624.600
96.70000 429.000
96.78500 130.900
96.87000 103.800
96.95500 96.900
97.04000 91.900
97.12500 71.400
97.21000 70.600
97.29500 99.700
97.38000 66.500
97.46500 77.300
97.55000 77.000
97.63500 54.800
97.72000 67.500
97.80500 70.300
97.89000 60.800
97.97500 61.200
98.06000 72.000
98.14500 55.900
98.23000 79.800
98.31500 53.200
98.40000 50.000
98.48500 65.800
98.57000 93.300
98.65500 143.000
98.74000 83.100
98.82500 66.400
98.91000 79.300
98.99500 78.500
99.08000 63.100
99.16500 74.100
99.25000 109.900
99.33500 201.800
99.42000 93.500
99.50500 61.200
99.59000 72.300
99.67500 71.800
99.76000 86.100
99.84500 73.100
99.93000 70.500
100.015 64.300
100.1 81.800
100.185 62.800
100.27 58.300
100.355 57.500
100.44 60.800
100.525 63.500
100.61 55.200
100.695 70.900
100.78 64.000
100.865 84.100
100.95 62.300
101.035 70.600
101.12 72.900
101.205 71.200
101.29 58.500
101.375 77.000
101.46 93.600
101.545 94.500
101.63 74.100
101.715 85.400
101.8 83.800
101.885 155.200
101.97 333.500
102.055 1012.200
102.14 210.200
102.225 117.400
102.31 105.700
102.395 85.400
102.48 112.500
102.565 75.800
102.65 81.500
102.735 80.800
102.82 62.200
102.905 50.300
102.99 88.500
103.075 79.700
103.16 79.600
103.245 73.600
103.33 67.700
103.415 68.300
103.5 77.100
103.585 79.300
103.67 82.600
103.755 87.400
103.84 90.000
103.925 126.200
104.01 218.600
104.095 661.200
104.18 190.200
104.265 129.000
104.35 73.900
104.435 75.400
104.52 109.000
104.605 91.300
104.69 139.900
104.775 329.200
104.86 134.400
104.945 111.800
105.03 71.600
105.115 66.500
105.2 71.800
105.285 74.400
105.37 71.300
105.455 61.600
105.54 71.000
105.625 65.400
105.71 79.800
105.795 59.000
105.88 63.100
105.965 68.000
106.05 68.600
106.135 75.500
106.22 64.200
106.305 66.200
106.39 56.900
106.475 70.400
106.56 77.800
106.645 62.200
106.73 74.700
106.815 82.200
106.9 72.400
106.985 74.800
107.07 52.200
107.155 85.200
107.24 69.100
107.325 49.000
107.41 61.400
107.495 78.000
107.58 78.300
107.665 60.300
107.75 55.100
107.835 60.500
107.92 69.500
108.005 62.700
108.09 58.500
108.175 52.400
108.26 68.600
108.345 72.600
108.43 75.500
108.515 53.000
108.6 69.900
108.685 72.800
108.77 53.500
108.855 68.000
108.94 70.600
109.025 55.400
109.11 64.100
109.195 54.300
109.28 53.900
109.365 62.000
109.45 58.900
109.535 72.000
109.62 62.300
109.705 78.300
109.79 69.500
109.875 66.600
109.96 55.300
110.045 63.100
110.13 97.600
110.215 102.200
110.3 161.600
110.385 402.700
110.47 128.500
110.555 94.700
110.64 96.500
110.725 73.700
110.81 62.300
110.895 58.100
110.98 79.300
111.065 97.100
111.15 67.700
111.235 61.000
111.32 60.900
111.405 65.900
111.49 72.100
111.575 67.800
111.66 54.800
111.745 73.800
111.83 49.100
111.915 47.500
112 42.600
112.085 65.300
112.17 84.700
112.255 68.600
112.34 59.300
112.425 64.600
112.51 75.100
112.595 82.300
112.68 53.400
112.765 92.100
112.85 88.500
112.935 67.500
113.02 62.600
113.105 133.400
113.19 245.500
113.275 404.400
113.36 127.000
113.445 99.500
113.53 99.900
113.615 61.100
113.7 65.700
113.785 72.100
113.87 72.300
113.955 48.800
114.04 74.100
114.125 73.000
114.21 51.400
114.295 61.400
114.38 52.000
114.465 78.100
114.55 66.400
114.635 62.900
114.72 77.900
114.805 61.000
114.89 72.500
114.975 63.000
115.06 75.500
115.145 90.900
115.23 92.700
115.315 116.400
115.4 204.200
115.485 190.500
115.57 93.900
115.655 72.200
115.74 81.000
115.825 93.900
115.91 81.000
115.995 83.100
116.08 65.100
116.165 68.400
116.25 55.600
116.335 57.800
116.42 67.500
116.505 71.700
116.59 59.900
116.675 69.700
116.76 69.300
116.845 63.000
116.93 93.200
117.015 52.600
117.1 62.300
117.185 62.600
117.27 57.000
117.355 70.800
117.44 69.200
117.525 77.100
117.61 76.100
117.695 84.000
117.78 62.600
117.865 68.800
117.95 63.200
118.035 53.700
118.12 65.600
118.205 68.500
118.29 70.800
118.375 78.700
118.46 62.000
118.545 61.700
118.63 54.400
118.715 74.400
118.8 58.400
118.885 78.800
118.97 96.100
119.055 108.000
119.14 209.400
119.225 252.300
119.31 110.800
119.395 69.200
119.48 65.000
119.565 72.500
119.65 72.700
119.735 65.000
119.82 62.400
119.905 71.100
119.99 79.300
120.075 80.900
120.16 70.800
120.245 71.900
120.33 72.100
120.415 66.500
120.5 78.800
120.585 66.700
120.67 58.100
120.755 72.800
120.84 73.200
120.925 66.300
121.01 65.500
121.095 75.300
121.18 69.700
121.265 68.700
121.35 101.700
121.435 96.900
121.52 112.300
121.605 87.600
121.69 67.900
121.775 92.800
121.86 83.800
121.945 94.200
122.03 86.900
122.115 91.400
122.2 158.000
122.285 292.800
122.37 158.200
122.455 100.600
122.54 70.300
122.625 64.800
122.71 76.700
122.795 60.700
122.88 66.300
122.965 68.000
123.05 67.600
123.135 68.800
123.22 59.800
123.305 66.300
123.39 76.100
123.475 77.700
123.56 67.900
123.645 75.900
123.73 81.400
123.815 77.400
123.9 40.200
123.985 55.800
124.07 78.500
124.155 71.000
124.24 77.000
124.325 60.500
124.41 80.200
124.495 65.800
124.58 66.700
124.665 73.700
124.75 78.400
124.835 70.800
124.92 82.800
125.005 71.400
125.09 71.100
125.175 95.100
125.26 84.100
125.345 135.200
125.43 255.000
125.515 410.400
125.6 144.700
125.685 91.400
125.77 90.900
125.855 58.400
125.94 68.400
126.025 85.000
126.11 71.800
126.195 64.500
126.28 79.600
126.365 78.200
126.45 71.300
126.535 75.400
126.62 81.000
126.705 67.000
126.79 60.500
126.875 81.600
126.96 64.800
127.045 74.600
127.13 67.100
127.215 58.800
127.3 59.900
127.385 83.400
127.47 74.500
127.555 80.200
127.64 81.500
127.725 87.900
127.81 94.200
127.895 153.000
127.98 262.200
128.065 182.500
128.15 97.000
128.235 88.900
128.32 77.600
128.405 84.600
128.49 81.700
128.575 97.300
128.66 101.000
128.745 132.600
128.83 287.000
128.915 145.600
129 101.500
129.085 83.300
129.17 74.000
129.255 84.200
129.34 85.700
129.425 70.900
129.51 63.400
129.595 80.200
129.68 62.900
129.765 61.900
129.85 82.500
129.935 62.100
130.02 77.100
130.105 59.300
130.19 61.400
130.275 86.200
130.36 76.000
130.445 73.200
130.5 71.600