File: Data/Materials_HUB_Synchrotron_XRD/CYJ_bg_LSiS414_108h-2_XRD.xy
10.50000 2690.500
10.58500 2578.200
10.67000 2517.800
10.75500 2567.800
10.84000 2442.100
10.92500 2395.200
11.01000 2407.100
11.09500 2404.300
11.18000 2318.400
11.26500 2180.600
11.35000 2098.100
11.43500 2327.900
11.52000 2244.500
11.60500 2197.900
11.69000 2137.600
11.77500 1960.400
11.86000 2115.300
11.94500 2028.300
12.03000 1993.000
12.11500 2010.700
12.20000 1906.100
12.28500 1965.400
12.37000 1919.100
12.45500 1895.800
12.54000 1845.000
12.62500 1836.200
12.71000 1782.100
12.79500 1834.800
12.88000 6048.600
12.96500 2096.400
13.05000 1844.100
13.13500 1643.000
13.22000 1708.800
13.30500 1733.600
13.39000 1620.800
13.47500 1696.900
13.56000 1612.300
13.64500 1663.000
13.73000 1601.200
13.81500 1668.600
13.90000 1685.000
13.98500 1572.600
14.07000 1683.000
14.15500 1583.500
14.24000 1609.700
14.32500 1602.900
14.41000 1530.200
14.49500 1827.100
14.58000 1745.100
14.66500 1654.200
14.75000 1666.400
14.83500 1641.800
14.92000 1671.300
15.00500 1675.400
15.09000 1661.000
15.17500 1659.600
15.26000 1778.400
15.34500 1763.800
15.43000 1744.400
15.51500 1696.200
15.60000 1670.300
15.68500 1756.500
15.77000 1778.400
15.85500 2307.600
15.94000 1873.700
16.02500 1872.100
16.11000 1791.100
16.19500 1757.900
16.28000 1797.800
16.36500 1774.900
16.45000 1901.600
16.53500 1838.100
16.62000 1872.600
16.70500 1958.700
16.79000 1977.300
16.87500 2004.800
16.96000 2153.400
17.04500 2013.400
17.13000 2122.500
17.21500 3002.200
17.30000 3082.000
17.38500 2128.600
17.47000 2129.100
17.55500 2107.600
17.64000 2036.300
17.72500 2165.300
17.81000 2185.900
17.89500 2186.300
17.98000 2289.300
18.06500 2121.000
18.15000 2279.400
18.23500 2220.800
18.32000 2316.400
18.40500 2600.700
18.49000 3187.500
18.57500 2301.600
18.66000 2321.200
18.74500 2288.300
18.83000 2238.300
18.91500 2427.100
19.00000 2325.900
19.08500 2402.300
19.17000 2395.200
19.25500 2288.700
19.34000 2385.700
19.42500 9588.000
19.51000 2508.500
19.59500 2499.100
19.68000 2404.100
19.76500 2260.100
19.85000 2183.900
19.93500 2291.300
20.02000 2281.900
20.10500 2112.300
20.19000 2184.600
20.27500 2081.700
20.36000 2172.600
20.44500 2126.900
20.53000 2148.100
20.61500 1973.400
20.70000 1992.500
20.78500 2057.700
20.87000 1940.600
20.95500 1888.600
21.04000 1965.100
21.12500 1838.100
21.21000 1757.100
21.29500 1849.900
21.38000 1848.000
21.46500 1748.100
21.55000 1762.900
21.63500 1687.500
21.72000 1613.600
21.80500 1669.500
21.89000 1503.000
21.97500 1497.600
22.06000 1473.700
22.14500 1517.100
22.23000 1493.100
22.31500 1492.900
22.40000 1595.000
22.48500 1347.400
22.57000 2193.400
22.65500 1347.200
22.74000 1271.400
22.82500 1419.500
22.91000 1362.100
22.99500 1332.000
23.08000 1227.500
23.16500 1205.100
23.25000 1160.300
23.33500 1129.400
23.42000 1078.700
23.50500 1097.300
23.59000 1056.000
23.67500 1080.000
23.76000 1013.300
23.84500 1005.500
23.93000 1081.500
24.01500 1040.400
24.10000 984.000
24.18500 889.900
24.27000 923.900
24.35500 972.000
24.44000 962.900
24.52500 933.700
24.61000 884.000
24.69500 894.800
24.78000 884.500
24.86500 880.400
24.95000 896.700
25.03500 886.000
25.12000 855.800
25.20500 876.200
25.29000 838.000
25.37500 819.500
25.46000 814.600
25.54500 834.100
25.63000 837.100
25.71500 744.600
25.80000 824.500
25.88500 1098.400
25.97000 10213.500
26.05500 1241.200
26.14000 843.500
26.22500 858.200
26.31000 966.800
26.39500 4187.700
26.48000 1398.800
26.56500 840.400
26.65000 719.100
26.73500 736.700
26.82000 791.500
26.90500 2644.100
26.99000 802.200
27.07500 1320.500
27.16000 799.000
27.24500 795.300
27.33000 669.300
27.41500 684.500
27.50000 675.400
27.58500 641.700
27.67000 626.400
27.75500 680.300
27.84000 703.900
27.92500 718.300
28.01000 2879.900
28.09500 712.600
28.18000 683.900
28.26500 649.900
28.35000 646.300
28.43500 678.000
28.52000 655.600
28.60500 684.000
28.69000 556.600
28.77500 575.200
28.86000 576.400
28.94500 652.800
29.03000 788.900
29.11500 5989.400
29.20000 2507.500
29.28500 934.200
29.37000 645.600
29.45500 588.900
29.54000 803.000
29.62500 639.500
29.71000 621.600
29.79500 1071.500
29.88000 5684.500
29.96500 752.800
30.05000 885.500
30.13500 1441.900
30.22000 6592.300
30.30500 1515.400
30.39000 846.300
30.47500 580.900
30.56000 557.900
30.64500 558.700
30.73000 502.500
30.81500 512.700
30.90000 474.200
30.98500 513.800
31.07000 507.200
31.15500 494.600
31.24000 483.000
31.32500 511.500
31.41000 791.200
31.49500 462.400
31.58000 465.400
31.66500 465.100
31.75000 500.600
31.83500 447.800
31.92000 482.400
32.00500 549.900
32.09000 459.700
32.17500 437.900
32.26000 427.900
32.34500 443.500
32.43000 435.700
32.51500 448.800
32.60000 444.100
32.68500 441.600
32.77000 453.700
32.85500 451.700
32.94000 413.300
33.02500 432.500
33.11000 398.600
33.19500 464.900
33.28000 423.400
33.36500 416.400
33.45000 351.600
33.53500 396.300
33.62000 435.900
33.70500 407.500
33.79000 399.400
33.87500 409.700
33.96000 418.700
34.04500 594.600
34.13000 419.600
34.21500 391.600
34.30000 334.800
34.38500 403.800
34.47000 395.800
34.55500 374.900
34.64000 338.600
34.72500 376.200
34.81000 355.300
34.89500 363.500
34.98000 348.200
35.06500 365.300
35.15000 370.200
35.23500 387.400
35.32000 372.200
35.40500 344.600
35.49000 316.600
35.57500 333.900
35.66000 352.500
35.74500 341.300
35.83000 463.700
35.91500 454.900
36.00000 332.200
36.08500 340.100
36.17000 292.700
36.25500 303.200
36.34000 296.400
36.42500 297.000
36.51000 286.900
36.59500 275.300
36.68000 262.100
36.76500 296.400
36.85000 244.500
36.93500 282.300
37.02000 298.000
37.10500 257.500
37.19000 271.000
37.27500 265.300
37.36000 238.400
37.44500 256.800
37.53000 269.500
37.61500 271.700
37.70000 264.900
37.78500 390.000
37.87000 247.800
37.95500 324.100
38.04000 351.200
38.12500 285.500
38.21000 256.700
38.29500 285.000
38.38000 441.900
38.46500 250.800
38.55000 224.300
38.63500 219.600
38.72000 212.500
38.80500 186.400
38.89000 200.400
38.97500 206.500
39.06000 225.400
39.14500 214.700
39.23000 189.100
39.31500 284.600
39.40000 926.700
39.48500 803.000
39.57000 469.700
39.65500 504.200
39.74000 4499.700
39.82500 474.500
39.91000 444.100
39.99500 338.000
40.08000 635.100
40.16500 262.700
40.25000 163.400
40.33500 197.400
40.42000 153.000
40.50500 158.000
40.59000 150.300
40.67500 166.300
40.76000 151.600
40.84500 169.500
40.93000 157.500
41.01500 178.400
41.10000 339.900
41.18500 1844.000
41.27000 195.600
41.35500 165.000
41.44000 160.700
41.52500 170.300
41.61000 156.900
41.69500 155.500
41.78000 123.400
41.86500 144.200
41.95000 150.900
42.03500 184.900
42.12000 262.200
42.20500 3251.500
42.29000 219.800
42.37500 228.100
42.46000 394.000
42.54500 198.000
42.63000 140.800
42.71500 166.100
42.80000 270.700
42.88500 218.100
42.97000 237.500
43.05500 237.700
43.14000 126.300
43.22500 127.600
43.31000 125.100
43.39500 138.800
43.48000 117.200
43.56500 142.800
43.65000 113.000
43.73500 122.900
43.82000 159.800
43.90500 268.700
43.99000 122.200
44.07500 127.100
44.16000 136.900
44.24500 120.100
44.33000 522.700
44.41500 124.000
44.50000 114.900
44.58500 119.200
44.67000 136.200
44.75500 158.000
44.84000 464.500
44.92500 278.100
45.01000 1054.100
45.09500 170.300
45.18000 139.600
45.26500 137.800
45.35000 118.200
45.43500 103.100
45.52000 152.200
45.60500 137.200
45.69000 152.200
45.77500 174.700
45.86000 178.700
45.94500 406.600
46.03000 1532.400
46.11500 11640.800
46.20000 620.700
46.28500 251.800
46.37000 414.200
46.45500 805.800
46.54000 204.000
46.62500 167.000
46.71000 201.500
46.79500 307.400
46.88000 2259.500
46.96500 469.700
47.05000 210.400
47.13500 116.500
47.22000 132.500
47.30500 112.400
47.39000 133.100
47.47500 247.800
47.56000 134.100
47.64500 110.400
47.73000 142.900
47.81500 127.300
47.90000 213.600
47.98500 127.100
48.07000 151.500
48.15500 119.200
48.24000 142.100
48.32500 133.800
48.41000 104.700
48.49500 145.000
48.58000 228.600
48.66500 115.000
48.75000 182.300
48.83500 461.500
48.92000 152.600
49.00500 107.900
49.09000 122.700
49.17500 116.500
49.26000 111.300
49.34500 119.400
49.43000 113.600
49.51500 113.200
49.60000 122.400
49.68500 126.500
49.77000 145.000
49.85500 120.300
49.94000 125.600
50.02500 113.900
50.11000 140.700
50.19500 199.900
50.28000 685.000
50.36500 435.500
50.45000 181.300
50.53500 187.500
50.62000 187.200
50.70500 152.800
50.79000 173.000
50.87500 199.500
50.96000 1090.500
51.04500 279.000
51.13000 199.300
51.21500 666.300
51.30000 238.900
51.38500 146.200
51.47000 123.000
51.55500 144.000
51.64000 192.900
51.72500 156.000
51.81000 138.500
51.89500 151.300
51.98000 214.800
52.06500 463.600
52.15000 909.600
52.23500 421.000
52.32000 1568.400
52.40500 1166.900
52.49000 332.800
52.57500 203.300
52.66000 189.800
52.74500 291.600
52.83000 152.600
52.91500 144.200
53.00000 126.300
53.08500 167.700
53.17000 152.000
53.25500 229.700
53.34000 673.100
53.42500 347.900
53.51000 244.300
53.59500 161.300
53.68000 122.300
53.76500 117.600
53.85000 145.200
53.93500 120.900
54.02000 123.600
54.10500 130.400
54.19000 145.300
54.27500 180.700
54.36000 450.800
54.44500 353.800
54.53000 177.300
54.61500 477.000
54.70000 224.300
54.78500 247.400
54.87000 701.500
54.95500 296.800
55.04000 172.200
55.12500 173.900
55.21000 246.200
55.29500 220.300
55.38000 410.900
55.46500 3715.400
55.55000 697.400
55.63500 532.700
55.72000 614.000
55.80500 303.600
55.89000 277.000
55.97500 320.200
56.06000 301.800
56.14500 1657.700
56.23000 595.000
56.31500 243.500
56.40000 178.600
56.48500 186.600
56.57000 619.300
56.65500 312.600
56.74000 167.000
56.82500 153.700
56.91000 151.600
56.99500 265.200
57.08000 311.500
57.16500 118.500
57.25000 111.500
57.33500 126.900
57.42000 182.400
57.50500 379.400
57.59000 181.800
57.67500 266.600
57.76000 147.200
57.84500 156.100
57.93000 408.300
58.01500 172.300
58.10000 139.600
58.18500 164.500
58.27000 148.800
58.35500 115.000
58.44000 132.200
58.52500 109.200
58.61000 127.100
58.69500 116.100
58.78000 172.400
58.86500 253.000
58.95000 349.700
59.03500 144.200
59.12000 125.700
59.20500 178.100
59.29000 131.000
59.37500 118.900
59.46000 120.000
59.54500 128.700
59.63000 124.700
59.71500 103.200
59.80000 94.500
59.88500 123.100
59.97000 113.900
60.05500 127.000
60.14000 116.500
60.22500 149.800
60.31000 125.200
60.39500 481.700
60.48000 216.000
60.56500 166.000
60.65000 156.500
60.73500 191.800
60.82000 558.800
60.90500 235.200
60.99000 827.700
61.07500 318.400
61.16000 188.600
61.24500 392.300
61.33000 863.100
61.41500 524.900
61.50000 301.600
61.58500 239.600
61.67000 204.800
61.75500 370.800
61.84000 169.100
61.92500 132.900
62.01000 330.300
62.09500 387.600
62.18000 190.300
62.26500 139.600
62.35000 118.100
62.43500 97.000
62.52000 115.300
62.60500 120.200
62.69000 134.600
62.77500 169.000
62.86000 466.400
62.94500 378.300
63.03000 145.800
63.11500 127.700
63.20000 179.500
63.28500 255.000
63.37000 187.900
63.45500 123.800
63.54000 105.500
63.62500 121.800
63.71000 140.600
63.79500 111.100
63.88000 134.600
63.96500 121.300
64.05000 169.800
64.13500 413.600
64.22000 171.200
64.30500 121.700
64.39000 104.900
64.47500 124.800
64.56000 105.000
64.64500 110.600
64.73000 118.100
64.81500 146.300
64.90000 516.900
64.98500 197.100
65.07000 149.800
65.15500 135.600
65.24000 280.900
65.32500 1063.600
65.41000 254.800
65.49500 300.700
65.58000 169.700
65.66500 140.600
65.75000 121.500
65.83500 127.700
65.92000 151.700
66.00500 157.200
66.09000 378.200
66.17500 120.900
66.26000 117.300
66.34500 103.700
66.43000 125.300
66.51500 179.400
66.60000 118.900
66.68500 123.500
66.77000 115.200
66.85500 232.800
66.94000 232.400
67.02500 294.800
67.11000 313.800
67.19500 191.700
67.28000 320.700
67.36500 234.100
67.45000 112.600
67.53500 140.500
67.62000 97.500
67.70500 133.300
67.79000 111.100
67.87500 135.500
67.96000 145.000
68.04500 201.200
68.13000 514.600
68.21500 158.400
68.30000 126.600
68.38500 151.600
68.47000 127.400
68.55500 101.500
68.64000 93.200
68.72500 93.700
68.81000 180.400
68.89500 122.100
68.98000 114.100
69.06500 93.300
69.15000 108.100
69.23500 156.500
69.32000 266.800
69.40500 129.300
69.49000 111.300
69.57500 109.600
69.66000 113.600
69.74500 83.300
69.83000 111.300
69.91500 115.600
70.00000 219.700
70.08500 144.900
70.17000 119.400
70.25500 99.800
70.34000 150.200
70.42500 123.300
70.51000 111.000
70.59500 101.700
70.68000 97.800
70.76500 114.900
70.85000 104.900
70.93500 175.900
71.02000 156.000
71.10500 107.100
71.19000 120.300
71.27500 106.300
71.36000 130.000
71.44500 164.000
71.53000 378.200
71.61500 237.000
71.70000 299.900
71.78500 278.400
71.87000 555.100
71.95500 377.800
72.04000 158.800
72.12500 154.600
72.21000 184.100
72.29500 336.100
72.38000 151.900
72.46500 162.200
72.55000 163.300
72.63500 304.900
72.72000 677.100
72.80500 239.200
72.89000 177.400
72.97500 190.500
73.06000 509.800
73.14500 720.100
73.23000 711.700
73.31500 231.100
73.40000 164.200
73.48500 139.800
73.57000 129.700
73.65500 168.500
73.74000 163.400
73.82500 405.400
73.91000 320.000
73.99500 145.600
74.08000 122.900
74.16500 122.400
74.25000 111.000
74.33500 126.500
74.42000 149.400
74.50500 207.300
74.59000 216.800
74.67500 130.200
74.76000 206.200
74.84500 214.000
74.93000 155.100
75.01500 148.900
75.10000 203.500
75.18500 195.200
75.27000 133.100
75.35500 138.700
75.44000 125.000
75.52500 171.100
75.61000 169.000
75.69500 507.600
75.78000 225.500
75.86500 147.000
75.95000 222.900
76.03500 472.500
76.12000 250.400
76.20500 149.200
76.29000 110.500
76.37500 110.200
76.46000 113.700
76.54500 188.900
76.63000 335.500
76.71500 287.100
76.80000 158.300
76.88500 153.500
76.97000 110.200
77.05500 105.600
77.14000 99.400
77.22500 140.800
77.31000 154.700
77.39500 96.900
77.48000 126.600
77.56500 126.100
77.65000 168.100
77.73500 114.900
77.82000 98.100
77.90500 91.100
77.99000 122.200
78.07500 98.800
78.16000 121.000
78.24500 176.700
78.33000 138.000
78.41500 114.700
78.50000 86.300
78.58500 105.500
78.67000 109.300
78.75500 116.800
78.84000 100.100
78.92500 98.600
79.01000 128.000
79.09500 128.000
79.18000 233.000
79.26500 241.100
79.35000 162.900
79.43500 510.400
79.52000 185.100
79.60500 140.300
79.69000 124.800
79.77500 221.300
79.86000 168.600
79.94500 153.600
80.03000 125.700
80.11500 193.300
80.20000 202.200
80.28500 145.000
80.37000 151.200
80.45500 147.100
80.54000 282.500
80.62500 476.800
80.71000 375.500
80.79500 185.800
80.88000 157.300
80.96500 176.800
81.05000 130.300
81.13500 181.100
81.22000 324.500
81.30500 422.600
81.39000 203.300
81.47500 121.400
81.56000 117.500
81.64500 108.800
81.73000 142.800
81.81500 109.500
81.90000 124.400
81.98500 118.100
82.07000 143.200
82.15500 201.700
82.24000 247.400
82.32500 212.300
82.41000 261.300
82.49500 124.700
82.58000 118.900
82.66500 119.200
82.75000 126.100
82.83500 197.300
82.92000 258.100
83.00500 278.800
83.09000 196.000
83.17500 132.500
83.26000 124.500
83.34500 118.100
83.43000 132.600
83.51500 113.600
83.60000 126.200
83.68500 154.100
83.77000 348.800
83.85500 380.400
83.94000 437.800
84.02500 686.900
84.11000 277.400
84.19500 193.100
84.28000 167.300
84.36500 159.200
84.45000 124.700
84.53500 144.100
84.62000 152.800
84.70500 167.500
84.79000 254.300
84.87500 449.600
84.96000 249.300
85.04500 137.800
85.13000 118.200
85.21500 203.700
85.30000 147.500
85.38500 131.000
85.47000 115.800
85.55500 126.500
85.64000 147.500
85.72500 176.900
85.81000 237.500
85.89500 195.100
85.98000 281.200
86.06500 240.800
86.15000 156.700
86.23500 193.600
86.32000 269.100
86.40500 394.400
86.49000 366.400
86.57500 605.100
86.66000 281.600
86.74500 177.600
86.83000 146.700
86.91500 118.000
87.00000 149.500
87.08500 172.200
87.17000 121.400
87.25500 125.900
87.34000 112.200
87.42500 160.100
87.51000 106.700
87.59500 105.200
87.68000 108.300
87.76500 121.700
87.85000 105.400
87.93500 110.500
88.02000 115.800
88.10500 139.100
88.19000 176.500
88.27500 175.300
88.36000 186.600
88.44500 174.500
88.53000 259.100
88.61500 238.400
88.70000 136.700
88.78500 129.400
88.87000 152.900
88.95500 142.600
89.04000 129.600
89.12500 133.700
89.21000 159.900
89.29500 223.500
89.38000 250.200
89.46500 207.200
89.55000 164.000
89.63500 194.200
89.72000 228.700
89.80500 313.700
89.89000 178.200
89.97500 132.000
90.06000 177.600
90.14500 203.000
90.23000 277.500
90.31500 476.000
90.40000 447.400
90.48500 239.700
90.57000 176.600
90.65500 162.800
90.74000 177.300
90.82500 131.800
90.91000 137.200
90.99500 161.500
91.08000 297.200
91.16500 504.600
91.25000 627.400
91.33500 384.300
91.42000 267.500
91.50500 326.300
91.59000 241.100
91.67500 182.800
91.76000 123.100
91.84500 127.600
91.93000 152.100
92.01500 184.600
92.10000 256.300
92.18500 226.400
92.27000 168.700
92.35500 117.100
92.44000 124.000
92.52500 139.500
92.61000 122.000
92.69500 122.300
92.78000 187.600
92.86500 332.200
92.95000 178.700
93.03500 185.800
93.12000 169.300
93.20500 170.300
93.29000 204.900
93.37500 195.400
93.46000 174.200
93.54500 170.700
93.63000 149.200
93.71500 208.700
93.80000 454.600
93.88500 289.300
93.97000 218.700
94.05500 203.300
94.14000 172.500
94.22500 195.200
94.31000 303.100
94.39500 186.900
94.48000 129.900
94.56500 162.000
94.65000 132.200
94.73500 147.500
94.82000 145.300
94.90500 172.300
94.99000 153.900
95.07500 354.500
95.16000 184.500
95.24500 165.800
95.33000 135.700
95.41500 171.300
95.50000 199.000
95.58500 192.800
95.67000 189.900
95.75500 251.200
95.84000 382.000
95.92500 310.200
96.01000 186.100
96.09500 160.900
96.18000 115.900
96.26500 120.800
96.35000 142.500
96.43500 139.500
96.52000 265.500
96.60500 154.100
96.69000 194.700
96.77500 169.400
96.86000 168.700
96.94500 207.000
97.03000 166.400
97.11500 152.000
97.20000 146.400
97.28500 149.700
97.37000 200.000
97.45500 175.900
97.54000 140.400
97.62500 152.700
97.71000 136.600
97.79500 156.200
97.88000 189.300
97.96500 322.600
98.05000 176.000
98.13500 142.000
98.22000 160.900
98.30500 160.200
98.39000 178.900
98.47500 144.500
98.56000 222.000
98.64500 162.700
98.73000 152.800
98.81500 168.400
98.90000 202.500
98.98500 215.500
99.07000 332.300
99.15500 439.100
99.24000 227.200
99.32500 175.300
99.41000 173.200
99.49500 278.200
99.58000 190.700
99.66500 163.400
99.75000 145.500
99.83500 171.700
99.92000 190.800
100.005 142.700
100.09 108.300
100.175 129.800
100.26 130.400
100.345 178.800
100.43 129.900
100.515 177.200
100.6 217.500
100.685 144.500
100.77 128.000
100.855 133.300
100.94 115.700
101.025 121.400
101.11 121.700
101.195 165.100
101.28 378.400
101.365 210.900
101.45 194.800
101.535 131.900
101.62 142.500
101.705 123.100
101.79 157.300
101.875 139.100
101.96 200.200
102.045 405.800
102.13 260.800
102.215 173.900
102.3 208.100
102.385 362.000
102.47 257.800
102.555 225.100
102.64 208.000
102.725 156.800
102.81 157.200
102.895 165.200
102.98 208.600
103.065 294.600
103.15 364.000
103.235 376.800
103.32 231.900
103.405 172.300
103.49 209.900
103.575 165.200
103.66 144.600
103.745 143.300
103.83 160.200
103.915 148.700
104 144.200
104.085 188.400
104.17 168.200
104.255 136.900
104.34 141.300
104.425 122.700
104.51 162.700
104.595 172.200
104.68 171.400
104.765 204.500
104.85 169.900
104.935 261.900
105.02 359.900
105.105 336.500
105.19 223.600
105.275 197.100
105.36 201.300
105.445 302.400
105.53 225.000
105.615 222.100
105.7 268.300
105.785 214.300
105.87 262.000
105.955 377.700
106.04 188.300
106.125 167.600
106.21 186.200
106.295 236.700
106.38 273.800
106.465 160.100
106.55 128.700
106.635 150.500
106.72 142.700
106.805 162.800
106.89 194.200
106.975 296.800
107.06 177.300
107.145 129.800
107.23 164.200
107.315 180.400
107.4 141.700
107.485 143.900
107.57 150.100
107.655 186.400
107.74 170.500
107.825 126.500
107.91 156.400
107.995 149.300
108.08 162.100
108.165 226.900
108.25 164.800
108.335 152.300
108.42 270.300
108.505 267.200
108.59 299.000
108.675 246.400
108.76 201.500
108.845 236.000
108.93 189.700
109.015 139.700
109.1 120.500
109.185 128.900
109.27 142.500
109.355 142.800
109.44 136.300
109.525 164.000
109.61 181.200
109.695 154.500
109.78 147.000
109.865 161.100
109.95 243.900
110.035 292.200
110.12 252.100
110.205 226.500
110.29 173.000
110.375 162.400
110.46 191.700
110.545 206.400
110.63 213.500
110.715 239.000
110.8 224.900
110.885 205.600
110.97 172.900
111.055 147.000
111.14 129.200
111.225 155.000
111.31 189.000
111.395 209.200
111.48 323.400
111.565 296.000
111.65 171.100
111.735 182.600
111.82 235.100
111.905 405.800
111.99 401.000
112.075 276.900
112.16 201.800
112.245 175.500
112.33 160.100
112.415 121.300
112.5 138.500
112.585 184.000
112.67 204.900
112.755 209.900
112.84 164.000
112.925 132.800
113.01 146.200
113.095 213.300
113.18 243.600
113.265 198.800
113.35 131.100
113.435 156.100
113.52 188.100
113.605 149.300
113.69 157.300
113.775 137.900
113.86 213.900
113.945 309.700
114.03 187.300
114.115 183.400
114.2 216.700
114.285 311.000
114.37 258.900
114.455 188.700
114.54 187.500
114.625 214.600
114.71 234.000
114.795 183.200
114.88 131.100
114.965 154.000
115.05 187.700
115.135 101.800
115.22 133.200
115.305 112.700
115.39 131.500
115.475 158.500
115.56 186.800
115.645 191.100
115.73 142.100
115.815 150.000
115.9 153.000
115.985 143.200
116.07 142.800
116.155 156.600
116.24 198.300
116.325 231.500
116.41 189.400
116.495 193.100
116.58 168.800
116.665 149.300
116.75 183.000
116.835 167.300
116.92 139.600
117.005 253.900
117.09 333.600
117.175 209.300
117.26 144.500
117.345 142.200
117.43 195.300
117.515 206.100
117.6 177.000
117.685 239.900
117.77 187.700
117.855 171.500
117.94 169.400
118.025 177.700
118.11 189.500
118.195 148.000
118.28 158.600
118.365 169.100
118.45 178.600
118.535 169.300
118.62 144.500
118.705 154.300
118.79 195.300
118.875 164.500
118.96 155.200
119.045 143.700
119.13 133.300
119.215 167.500
119.3 159.200
119.385 151.900
119.47 175.400
119.555 189.900
119.64 284.700
119.725 256.100
119.81 219.600
119.895 214.600
119.98 349.700
120.065 508.900
120.15 423.000
120.235 247.600
120.32 219.700
120.405 187.900
120.49 183.100
120.575 186.900
120.66 203.700
120.745 235.000
120.83 305.500
120.915 247.400
121 186.400
121.085 206.200
121.17 139.100
121.255 160.500
121.34 161.200
121.425 144.800
121.51 183.000
121.595 163.800
121.68 200.800
121.765 205.600
121.85 313.100
121.935 374.500
122.02 275.800
122.105 206.500
122.19 169.400
122.275 148.500
122.36 151.500
122.445 157.700
122.53 154.400
122.615 122.400
122.7 171.600
122.785 146.800
122.87 144.100
122.955 148.200
123.04 136.900
123.125 132.900
123.21 137.400
123.295 136.200
123.38 110.400
123.465 133.300
123.55 134.900
123.635 146.500
123.72 170.800
123.805 214.600
123.89 215.600
123.975 166.400
124.06 178.400
124.145 165.800
124.23 167.600
124.315 165.700
124.4 146.900
124.485 153.200
124.57 126.800
124.655 139.400
124.74 127.900
124.825 158.700
124.91 162.200
124.995 156.800
125.08 207.100
125.165 154.500
125.25 178.700
125.335 177.400
125.42 124.300
125.505 138.000
125.59 119.400
125.675 150.000
125.76 131.400
125.845 172.600
125.93 205.100
126.015 199.700
126.1 154.300
126.185 140.800
126.27 125.100
126.355 156.600
126.44 167.700
126.525 238.300
126.61 147.100
126.695 187.600
126.78 123.600
126.865 154.000
126.95 174.300
127.035 184.000
127.12 205.000
127.205 191.700
127.29 135.200
127.375 187.800
127.46 138.100
127.545 136.400
127.63 153.100
127.715 158.000
127.8 157.300
127.885 145.400
127.97 132.200
128.055 140.400
128.14 166.900
128.225 169.900
128.31 235.700
128.395 204.100
128.48 194.500
128.565 197.100
128.65 162.900
128.735 205.400
128.82 241.200
128.905 275.800
128.99 250.100
129.075 241.400
129.16 208.800
129.245 198.800
129.33 250.700
129.415 258.300
129.5 216.200
129.585 212.400
129.67 190.000
129.755 214.400
129.84 261.800
129.925 197.700
130.01 173.500
130.095 154.300
130.18 139.600
130.265 150.700
130.35 165.400
130.435 162.400
130.52 191.200
130.605 213.200
130.69 261.300
130.775 244.400
130.86 337.700
130.945 242.000
131 202.900