File: Data/Materials_HUB_Synchrotron_XRD/CYJ_cbg_LGPS_314+414_60h_XRD.xy
10.00000 2646.800
10.09000 2638.400
10.18000 2382.700
10.27000 2397.500
10.36000 2352.500
10.45000 2345.900
10.54000 2164.600
10.63000 2119.100
10.72000 2202.300
10.81000 2141.300
10.90000 2086.800
10.99000 1940.600
11.08000 1929.700
11.17000 2064.900
11.26000 1854.300
11.35000 1889.400
11.44000 1864.000
11.53000 1830.000
11.62000 1741.700
11.71000 1712.800
11.80000 1854.000
11.89000 1761.700
11.98000 1617.200
12.07000 1701.300
12.16000 1581.100
12.25000 1615.100
12.34000 2721.600
12.43000 3460.600
12.52000 1586.900
12.61000 1418.500
12.70000 1557.300
12.79000 1487.100
12.88000 1432.700
12.97000 1459.400
13.06000 1393.000
13.15000 1380.000
13.24000 1415.900
13.33000 1436.200
13.42000 1362.100
13.51000 1450.700
13.60000 1503.500
13.69000 1360.400
13.78000 1389.600
13.87000 1359.100
13.96000 1333.400
14.05000 1666.500
14.14000 1487.800
14.23000 1262.300
14.32000 1406.800
14.41000 8999.400
14.50000 2163.700
14.59000 1304.700
14.68000 1386.900
14.77000 1339.600
14.86000 1305.100
14.95000 1351.500
15.04000 1362.700
15.13000 1428.900
15.22000 1258.800
15.31000 1312.000
15.40000 1329.400
15.49000 1461.700
15.58000 1343.000
15.67000 1388.800
15.76000 1444.500
15.85000 1309.800
15.94000 1434.200
16.03000 1450.300
16.12000 1443.400
16.21000 1496.900
16.30000 1458.700
16.39000 1454.200
16.48000 1515.800
16.57000 1499.500
16.66000 1534.700
16.75000 1588.300
16.84000 1622.300
16.93000 1526.600
17.02000 1645.000
17.11000 1601.900
17.20000 1632.500
17.29000 1671.000
17.38000 2539.500
17.47000 2431.300
17.56000 1755.900
17.65000 1772.400
17.74000 1743.100
17.83000 1777.000
17.92000 1801.600
18.01000 1840.100
18.10000 1915.900
18.19000 1994.600
18.28000 1806.800
18.37000 1782.200
18.46000 1940.800
18.55000 1857.300
18.64000 1876.700
18.73000 1892.900
18.82000 1823.200
18.91000 1891.900
19.00000 1899.800
19.09000 1884.600
19.18000 1935.500
19.27000 1834.700
19.36000 1970.900
19.45000 1838.300
19.54000 1868.200
19.63000 1771.400
19.72000 1801.800
19.81000 1850.500
19.90000 1801.100
19.99000 1820.000
20.08000 1875.200
20.17000 3661.900
20.26000 4935.800
20.35000 2021.500
20.44000 7098.400
20.53000 2693.900
20.62000 1772.000
20.71000 1668.500
20.80000 1614.500
20.89000 1620.500
20.98000 1510.600
21.07000 1503.500
21.16000 1535.700
21.25000 1381.500
21.34000 1468.700
21.43000 1456.000
21.52000 1389.500
21.61000 1353.200
21.70000 1314.500
21.79000 1305.300
21.88000 1224.800
21.97000 1291.900
22.06000 1215.300
22.15000 1171.400
22.24000 1215.000
22.33000 1155.400
22.42000 1120.800
22.51000 1158.700
22.60000 1150.300
22.69000 1092.800
22.78000 1014.700
22.87000 1046.400
22.96000 1023.400
23.05000 1131.300
23.14000 985.500
23.23000 981.600
23.32000 921.500
23.41000 879.300
23.50000 972.600
23.59000 1713.900
23.68000 872.000
23.77000 869.400
23.86000 939.100
23.95000 4676.900
24.04000 2301.900
24.13000 1094.100
24.22000 826.200
24.31000 736.800
24.40000 824.100
24.49000 768.400
24.58000 718.600
24.67000 715.700
24.76000 727.500
24.85000 742.700
24.94000 1002.400
25.03000 712.300
25.12000 732.500
25.21000 689.900
25.30000 733.600
25.39000 767.800
25.48000 652.800
25.57000 639.400
25.66000 661.900
25.75000 644.100
25.84000 665.000
25.93000 701.000
26.02000 584.200
26.11000 603.200
26.20000 563.500
26.29000 617.300
26.38000 609.000
26.47000 563.600
26.56000 629.000
26.65000 645.600
26.74000 586.700
26.83000 637.200
26.92000 1242.400
27.01000 3199.700
27.10000 1137.700
27.19000 647.200
27.28000 604.200
27.37000 550.800
27.46000 555.200
27.55000 584.300
27.64000 523.000
27.73000 515.400
27.82000 570.300
27.91000 523.700
28.00000 510.600
28.09000 510.000
28.18000 518.600
28.27000 499.700
28.36000 610.800
28.45000 553.000
28.54000 508.500
28.63000 442.800
28.72000 490.200
28.81000 481.300
28.90000 540.300
28.99000 557.600
29.08000 1700.400
29.17000 867.400
29.26000 578.800
29.35000 552.200
29.44000 590.900
29.53000 1090.600
29.62000 14083.600
29.71000 3668.800
29.80000 955.400
29.89000 621.800
29.98000 523.800
30.07000 499.000
30.16000 508.800
30.25000 483.600
30.34000 470.300
30.43000 481.000
30.52000 447.700
30.61000 459.600
30.70000 405.100
30.79000 428.000
30.88000 441.700
30.97000 415.500
31.06000 445.900
31.15000 423.900
31.24000 498.800
31.33000 455.300
31.42000 669.400
31.51000 522.800
31.60000 481.200
31.69000 1093.100
31.78000 722.100
31.87000 516.500
31.96000 428.200
32.05000 402.400
32.14000 409.100
32.23000 401.500
32.32000 436.800
32.41000 432.900
32.50000 429.700
32.59000 556.500
32.68000 430.600
32.77000 420.500
32.86000 380.400
32.95000 392.400
33.04000 385.300
33.13000 386.900
33.22000 383.900
33.31000 474.900
33.40000 1324.400
33.49000 675.900
33.58000 449.800
33.67000 378.400
33.76000 361.200
33.85000 387.000
33.94000 347.000
34.03000 372.200
34.12000 456.400
34.21000 417.800
34.30000 379.600
34.39000 356.400
34.48000 334.900
34.57000 384.100
34.66000 353.700
34.75000 313.800
34.84000 374.000
34.93000 317.100
35.02000 350.500
35.11000 351.900
35.20000 302.700
35.29000 356.500
35.38000 346.400
35.47000 351.600
35.56000 330.400
35.65000 784.700
35.74000 516.100
35.83000 392.900
35.92000 341.100
36.01000 318.200
36.10000 300.800
36.19000 296.400
36.28000 320.700
36.37000 323.900
36.46000 298.500
36.55000 308.800
36.64000 300.300
36.73000 606.300
36.82000 1275.100
36.91000 548.100
37.00000 338.000
37.09000 267.700
37.18000 312.700
37.27000 366.500
37.36000 275.800
37.45000 272.500
37.54000 253.300
37.63000 294.700
37.72000 834.200
37.81000 1010.000
37.90000 491.500
37.99000 408.900
38.08000 370.300
38.17000 303.900
38.26000 234.500
38.35000 254.800
38.44000 226.600
38.53000 225.800
38.62000 246.800
38.71000 226.400
38.80000 209.700
38.89000 210.200
38.98000 212.400
39.07000 194.700
39.16000 276.300
39.25000 304.200
39.34000 238.800
39.43000 221.300
39.52000 231.700
39.61000 195.300
39.70000 214.900
39.79000 208.600
39.88000 226.200
39.97000 199.600
40.06000 201.900
40.15000 192.100
40.24000 189.700
40.33000 186.000
40.42000 155.600
40.51000 191.200
40.60000 161.900
40.69000 201.800
40.78000 196.000
40.87000 194.800
40.96000 213.700
41.05000 587.700
41.14000 664.100
41.23000 364.800
41.32000 246.300
41.41000 228.900
41.50000 637.500
41.59000 2563.200
41.68000 1164.200
41.77000 576.200
41.86000 334.000
41.95000 245.600
42.04000 187.500
42.13000 183.600
42.22000 164.000
42.31000 193.900
42.40000 660.900
42.49000 808.300
42.58000 399.400
42.67000 240.900
42.76000 177.100
42.85000 356.200
42.94000 190.900
43.03000 182.100
43.12000 192.900
43.21000 297.300
43.30000 332.400
43.39000 196.700
43.48000 215.900
43.57000 250.000
43.66000 191.800
43.75000 274.200
43.84000 198.900
43.93000 166.300
44.02000 183.900
44.11000 241.800
44.20000 198.300
44.29000 164.900
44.38000 146.800
44.47000 193.500
44.56000 191.800
44.65000 142.400
44.74000 156.000
44.83000 157.900
44.92000 150.200
45.01000 174.600
45.10000 170.000
45.19000 146.800
45.28000 166.800
45.37000 599.700
45.46000 464.100
45.55000 276.100
45.64000 198.300
45.73000 202.500
45.82000 175.600
45.91000 142.800
46.00000 142.100
46.09000 135.600
46.18000 146.800
46.27000 142.100
46.36000 150.800
46.45000 157.800
46.54000 144.900
46.63000 144.700
46.72000 147.300
46.81000 135.400
46.90000 152.700
46.99000 166.500
47.08000 318.000
47.17000 395.100
47.26000 255.700
47.35000 225.600
47.44000 385.800
47.53000 3247.800
47.62000 1996.000
47.71000 930.500
47.80000 455.400
47.89000 246.200
47.98000 162.200
48.07000 150.500
48.16000 191.000
48.25000 175.900
48.34000 195.900
48.43000 161.600
48.52000 138.500
48.61000 117.700
48.70000 152.000
48.79000 118.100
48.88000 114.600
48.97000 136.200
49.06000 230.600
49.15000 190.800
49.24000 180.200
49.33000 223.500
49.42000 649.400
49.51000 311.800
49.60000 212.600
49.69000 151.700
49.78000 133.600
49.87000 140.700
49.96000 142.000
50.05000 122.800
50.14000 151.900
50.23000 133.500
50.32000 180.000
50.41000 149.100
50.50000 141.800
50.59000 148.200
50.68000 153.300
50.77000 121.300
50.86000 132.000
50.95000 146.800
51.04000 138.800
51.13000 147.100
51.22000 125.800
51.31000 133.100
51.40000 117.900
51.49000 131.400
51.58000 169.100
51.67000 146.500
51.76000 184.000
51.85000 832.900
51.94000 570.500
52.03000 305.700
52.12000 239.100
52.21000 258.400
52.30000 194.100
52.39000 151.300
52.48000 199.200
52.57000 503.200
52.66000 392.500
52.75000 283.900
52.84000 743.500
52.93000 862.500
53.02000 422.600
53.11000 335.100
53.20000 514.900
53.29000 352.200
53.38000 293.500
53.47000 231.400
53.56000 192.300
53.65000 159.100
53.74000 293.900
53.83000 320.300
53.92000 266.700
54.01000 302.500
54.10000 215.300
54.19000 164.100
54.28000 164.200
54.37000 150.700
54.46000 156.400
54.55000 141.100
54.64000 158.000
54.73000 199.200
54.82000 291.700
54.91000 198.300
55.00000 182.100
55.09000 195.400
55.18000 162.700
55.27000 264.200
55.36000 705.600
55.45000 316.100
55.54000 266.400
55.63000 269.400
55.72000 198.700
55.81000 331.900
55.90000 740.700
55.99000 448.300
56.08000 279.700
56.17000 220.100
56.26000 204.000
56.35000 163.000
56.44000 210.800
56.53000 152.600
56.62000 135.400
56.71000 151.200
56.80000 150.400
56.89000 136.100
56.98000 142.500
57.07000 153.100
57.16000 140.300
57.25000 140.900
57.34000 265.400
57.43000 335.200
57.52000 443.800
57.61000 624.700
57.70000 351.500
57.79000 239.800
57.88000 208.200
57.97000 173.700
58.06000 144.600
58.15000 153.500
58.24000 260.000
58.33000 1164.300
58.42000 730.300
58.51000 394.300
58.60000 294.300
58.69000 207.600
58.78000 183.700
58.87000 157.700
58.96000 182.000
59.05000 363.600
59.14000 420.400
59.23000 262.000
59.32000 174.800
59.41000 179.400
59.50000 161.600
59.59000 117.200
59.68000 122.300
59.77000 131.300
59.86000 126.100
59.95000 128.600
60.04000 144.700
60.13000 151.300
60.22000 360.900
60.31000 259.900
60.40000 212.700
60.49000 172.700
60.58000 240.300
60.67000 439.200
60.76000 414.200
60.85000 711.000
60.94000 760.300
61.03000 350.300
61.12000 261.100
61.21000 203.500
61.30000 141.600
61.39000 135.100
61.48000 145.300
61.57000 198.000
61.66000 199.800
61.75000 138.300
61.84000 129.400
61.93000 121.200
62.02000 120.300
62.11000 129.800
62.20000 154.000
62.29000 198.200
62.38000 144.900
62.47000 127.600
62.56000 136.800
62.65000 150.000
62.74000 237.700
62.83000 277.200
62.92000 199.900
63.01000 154.100
63.10000 127.200
63.19000 127.700
63.28000 118.800
63.37000 119.400
63.46000 112.100
63.55000 116.000
63.64000 115.700
63.73000 140.000
63.82000 158.200
63.91000 209.800
64.00000 160.100
64.09000 156.900
64.18000 274.600
64.27000 488.200
64.36000 474.200
64.45000 285.200
64.54000 228.000
64.63000 215.500
64.72000 257.900
64.81000 177.800
64.90000 138.400
64.99000 147.800
65.08000 119.600
65.17000 140.000
65.26000 203.700
65.35000 198.600
65.44000 252.600
65.53000 350.500
65.62000 218.100
65.71000 206.800
65.80000 200.900
65.89000 145.700
65.98000 136.800
66.07000 130.800
66.16000 117.000
66.25000 130.200
66.34000 107.300
66.43000 115.400
66.52000 121.900
66.61000 151.200
66.70000 135.000
66.79000 110.300
66.88000 129.200
66.97000 102.100
67.06000 126.300
67.15000 91.800
67.24000 114.300
67.33000 104.100
67.42000 100.300
67.51000 111.500
67.60000 126.900
67.69000 153.200
67.78000 144.500
67.87000 148.900
67.96000 144.000
68.05000 130.800
68.14000 120.900
68.23000 186.700
68.32000 143.400
68.41000 128.600
68.50000 142.900
68.59000 128.700
68.68000 154.500
68.77000 277.200
68.86000 222.600
68.95000 185.100
69.04000 174.900
69.13000 142.200
69.22000 116.300
69.31000 101.200
69.40000 106.400
69.49000 92.400
69.58000 146.000
69.67000 206.500
69.76000 153.800
69.85000 159.800
69.94000 140.200
70.03000 124.200
70.12000 113.500
70.21000 129.600
70.30000 202.500
70.39000 311.300
70.48000 215.100
70.57000 177.700
70.66000 135.400
70.75000 143.300
70.84000 164.800
70.93000 128.000
71.02000 263.400
71.11000 261.400
71.20000 168.300
71.29000 186.400
71.38000 137.400
71.47000 174.200
71.56000 226.400
71.65000 165.100
71.74000 231.500
71.83000 226.900
71.92000 184.300
72.01000 130.000
72.10000 131.400
72.19000 125.400
72.28000 163.800
72.37000 317.900
72.46000 248.000
72.55000 188.100
72.64000 151.000
72.73000 168.900
72.82000 139.500
72.91000 115.500
73.00000 109.400
73.09000 103.100
73.18000 124.500
73.27000 118.800
73.36000 126.800
73.45000 92.900
73.54000 95.300
73.63000 96.500
73.72000 108.300
73.81000 101.200
73.90000 119.300
73.99000 108.100
74.08000 114.600
74.17000 118.500
74.26000 94.100
74.35000 115.900
74.44000 132.400
74.53000 173.200
74.62000 143.200
74.71000 129.600
74.80000 120.900
74.89000 123.800
74.98000 109.700
75.07000 97.000
75.16000 110.600
75.25000 105.600
75.34000 131.100
75.43000 137.200
75.52000 223.400
75.61000 352.000
75.70000 285.700
75.79000 168.500
75.88000 142.400
75.97000 117.600
76.06000 123.200
76.15000 189.000
76.24000 234.300
76.33000 225.600
76.42000 243.900
76.51000 180.200
76.60000 180.300
76.69000 139.500
76.78000 143.000
76.87000 127.800
76.96000 147.500
77.05000 141.300
77.14000 159.000
77.23000 146.500
77.32000 152.700
77.41000 128.200
77.50000 134.500
77.59000 142.700
77.68000 183.200
77.77000 167.400
77.86000 142.700
77.95000 131.100
78.04000 130.500
78.13000 115.700
78.22000 127.800
78.31000 108.000
78.40000 117.300
78.49000 125.000
78.58000 110.600
78.67000 106.300
78.76000 131.800
78.85000 106.500
78.94000 128.000
79.03000 115.800
79.12000 102.100
79.21000 137.200
79.30000 178.600
79.39000 264.300
79.48000 361.200
79.57000 325.400
79.66000 227.500
79.75000 166.800
79.84000 209.100
79.93000 249.300
80.02000 254.300
80.11000 356.100
80.20000 322.100
80.29000 213.500
80.38000 170.600
80.47000 177.300
80.56000 153.400
80.65000 153.300
80.74000 163.000
80.83000 147.600
80.92000 125.200
81.01000 133.100
81.10000 135.800
81.19000 123.900
81.28000 115.500
81.37000 106.000
81.46000 102.000
81.55000 114.800
81.64000 118.900
81.73000 126.500
81.82000 114.400
81.91000 124.100
82.00000 115.800
82.09000 132.400
82.18000 123.100
82.27000 109.800
82.36000 103.500
82.45000 114.800
82.54000 91.800
82.63000 97.600
82.72000 113.200
82.81000 120.900
82.90000 136.300
82.99000 174.800
83.08000 154.000
83.17000 129.600
83.26000 116.300
83.35000 109.300
83.44000 112.600
83.53000 135.400
83.62000 185.300
83.71000 241.600
83.80000 246.800
83.89000 172.100
83.98000 128.600
84.07000 132.400
84.16000 147.900
84.25000 152.500
84.34000 156.500
84.43000 135.400
84.52000 147.900
84.61000 121.700
84.70000 128.000
84.79000 115.600
84.88000 105.800
84.97000 121.600
85.06000 123.200
85.15000 114.800
85.24000 111.000
85.33000 121.800
85.42000 134.200
85.51000 118.600
85.60000 107.000
85.69000 131.600
85.78000 107.100
85.87000 138.700
85.96000 99.300
86.05000 120.000
86.14000 118.700
86.23000 116.700
86.32000 145.500
86.41000 153.000
86.50000 132.700
86.59000 147.100
86.68000 117.300
86.77000 120.300
86.86000 127.600
86.95000 113.900
87.04000 114.700
87.13000 114.600
87.22000 176.200
87.31000 213.300
87.40000 321.800
87.49000 269.700
87.58000 203.100
87.67000 167.800
87.76000 151.400
87.85000 138.200
87.94000 155.400
88.03000 165.100
88.12000 181.800
88.21000 179.100
88.30000 140.300
88.39000 167.200
88.48000 146.200
88.57000 143.800
88.66000 149.900
88.75000 190.800
88.84000 185.500
88.93000 172.300
89.02000 131.000
89.11000 160.100
89.20000 143.400
89.29000 133.100
89.38000 148.900
89.47000 158.200
89.56000 135.700
89.65000 149.100
89.74000 138.200
89.83000 164.000
89.92000 189.800
90.01000 168.200
90.10000 233.500
90.19000 309.100
90.28000 238.300
90.37000 218.700
90.46000 163.300
90.55000 152.500
90.64000 143.400
90.73000 150.000
90.82000 163.900
90.91000 185.600
91.00000 165.600
91.09000 155.300
91.18000 150.200
91.27000 137.000
91.36000 134.400
91.45000 123.800
91.54000 104.000
91.63000 121.600
91.72000 143.600
91.81000 151.600
91.90000 123.700
91.99000 132.500
92.08000 115.400
92.17000 120.800
92.26000 113.400
92.35000 105.900
92.44000 140.500
92.53000 115.300
92.62000 126.100
92.71000 111.400
92.80000 121.300
92.89000 117.800
92.98000 164.400
93.07000 131.900
93.16000 150.600
93.25000 144.500
93.34000 135.300
93.43000 138.000
93.52000 125.900
93.61000 148.200
93.70000 207.400
93.79000 224.200
93.88000 194.500
93.97000 176.800
94.06000 171.300
94.15000 191.000
94.24000 209.500
94.33000 229.800
94.42000 212.500
94.51000 200.400
94.60000 159.500
94.69000 154.600
94.78000 146.000
94.87000 104.800
94.96000 119.800
95.05000 143.700
95.14000 150.600
95.23000 153.000
95.32000 123.800
95.41000 132.800
95.50000 141.000
95.59000 166.000
95.68000 145.200
95.77000 177.100
95.86000 148.500
95.95000 169.000
96.04000 211.600
96.13000 189.600
96.22000 189.700
96.31000 142.800
96.40000 165.700
96.49000 161.000
96.58000 142.300
96.67000 138.400
96.76000 132.100
96.85000 129.100
96.94000 117.700
97.03000 127.100
97.12000 113.900
97.21000 121.000
97.30000 126.400
97.39000 108.100
97.48000 139.300
97.57000 144.800
97.66000 158.100
97.75000 157.000
97.84000 139.900
97.93000 156.600
98.02000 135.000
98.11000 194.600
98.20000 199.200
98.29000 235.500
98.38000 174.600
98.47000 165.000
98.56000 172.700
98.65000 147.800
98.74000 135.200
98.83000 130.000
98.92000 152.700
99.01000 91.600
99.10000 125.400
99.19000 192.400
99.28000 202.600
99.37000 175.900
99.46000 145.400
99.55000 160.600
99.64000 110.500
99.73000 132.700
99.82000 113.000
99.91000 119.300
100 135.500
100.09 128.600
100.18 120.600
100.27 118.900
100.36 126.000
100.45 115.700
100.54 114.100
100.63 116.000
100.72 123.100
100.81 140.800
100.9 159.900
100.99 137.100
101.08 159.200
101.17 154.700
101.26 155.200
101.35 145.200
101.44 134.300
101.53 124.000
101.62 147.000
101.71 118.600
101.8 113.200
101.89 123.600
101.98 149.000
102.07 148.800
102.16 122.100
102.25 140.100
102.34 130.000
102.43 129.700
102.52 125.600
102.61 147.400
102.7 133.000
102.79 95.900
102.88 98.600
102.97 112.200
103.06 127.100
103.15 138.900
103.24 129.800
103.33 119.600
103.42 148.100
103.51 137.600
103.6 136.400
103.69 135.900
103.78 131.400
103.87 133.400
103.96 137.900
104.05 124.900
104.14 127.600
104.23 110.300
104.32 109.800
104.41 130.400
104.5 114.300
104.59 131.600
104.68 160.900
104.77 169.300
104.86 157.100
104.95 139.300
105.04 119.500
105.13 128.500
105.22 130.100
105.31 124.200
105.4 161.200
105.49 192.200
105.58 218.800
105.67 210.500
105.76 204.300
105.85 162.600
105.94 133.900
106.03 156.500
106.12 140.000
106.21 142.400
106.3 131.900
106.39 127.400
106.48 132.400
106.57 132.900
106.66 134.700
106.75 128.300
106.84 129.900
106.93 149.800
107.02 128.600
107.11 146.500
107.2 164.700
107.29 138.800
107.38 145.800
107.47 152.300
107.56 135.600
107.65 141.300
107.74 143.500
107.83 148.400
107.92 128.700
108.01 124.600
108.1 142.200
108.19 112.200
108.28 123.200
108.37 167.300
108.46 169.700
108.55 212.100
108.64 195.600
108.73 173.800
108.82 161.200
108.91 162.800
109 169.400
109.09 164.000
109.18 170.000
109.27 169.400
109.36 204.800
109.45 212.700
109.54 189.700
109.63 181.200
109.72 185.700
109.81 212.900
109.9 204.600
109.99 191.800
110.08 197.500
110.17 162.600
110.26 144.100
110.35 127.500
110.44 181.800
110.53 166.100
110.62 143.700
110.71 137.500
110.8 128.300
110.89 97.500
110.98 139.800
111.07 123.000
111.16 131.000
111.25 133.200
111.34 120.600
111.43 137.800
111.52 121.400
111.61 130.700
111.7 129.500
111.79 117.000
111.88 151.500
111.97 117.500
112.06 131.800
112.15 129.100
112.24 143.100
112.33 143.800
112.42 143.500
112.51 139.400
112.6 121.500
112.69 136.800
112.78 98.300
112.87 145.800
112.96 119.700
113.05 169.400
113.14 147.400
113.23 150.300
113.32 174.700
113.41 147.600
113.5 139.400
113.59 151.300
113.68 121.700
113.77 131.500
113.86 121.500
113.95 133.800
114.04 140.900
114.13 126.100
114.22 129.700
114.31 140.100
114.4 128.100
114.49 124.700
114.58 112.400
114.67 140.000
114.76 182.600
114.85 146.900
114.94 130.900
115.03 149.300
115.12 126.900
115.21 134.600
115.3 138.100
115.39 141.400
115.48 141.100
115.57 151.900
115.66 155.000
115.75 136.600
115.84 118.100
115.93 122.200
116.02 115.300
116.11 114.900
116.2 119.900
116.29 116.700
116.38 131.200
116.47 141.200
116.56 109.800
116.65 101.000
116.74 100.900
116.83 120.100
116.92 103.400
117.01 126.400
117.1 136.800
117.19 147.700
117.28 157.700
117.37 159.400
117.46 167.200
117.55 128.800
117.64 151.300
117.73 129.900
117.82 121.200
117.91 131.000
118 130.600
118.09 116.200
118.18 127.500
118.27 128.300
118.36 127.600
118.45 137.000
118.54 117.000
118.63 132.400
118.72 125.200
118.81 102.300
118.9 130.100
118.99 128.200
119.08 116.900
119.17 126.700
119.26 131.100
119.35 160.200
119.44 144.100
119.53 138.200
119.62 125.300
119.71 122.000
119.8 139.000
119.89 126.300
119.98 141.500
120.07 104.000
120.16 100.300
120.25 126.100
120.34 118.700
120.43 109.600
120.52 114.300
120.61 117.400
120.7 118.700
120.79 101.400
120.88 118.200
120.97 123.900
121.06 127.300
121.15 126.400
121.24 119.800
121.33 122.400
121.42 129.100
121.51 118.500
121.6 140.000
121.69 99.300
121.78 122.300
121.87 133.400
121.96 134.800
122.05 118.900
122.14 129.900
122.23 125.800
122.32 112.800
122.41 134.700
122.5 151.400
122.59 143.100
122.68 156.200
122.77 160.700
122.86 128.800
122.95 127.900
123.04 116.900
123.13 132.700
123.22 101.300
123.31 124.700
123.4 125.900
123.49 120.100
123.58 121.200
123.67 139.800
123.76 134.400
123.85 127.400
123.94 119.700
124.03 117.700
124.12 110.900
124.21 99.000
124.3 114.000
124.39 112.300
124.48 126.200
124.57 137.100
124.66 184.000
124.75 154.600
124.84 163.800
124.93 167.200
125.02 158.800
125.11 152.300
125.2 152.300
125.29 124.600
125.38 131.400
125.47 131.900
125.56 126.200
125.65 126.300
125.74 115.500
125.83 125.600
125.92 154.400
126.01 124.700
126.1 108.000
126.19 114.300
126.28 123.500
126.37 145.500
126.46 116.800
126.55 119.200
126.64 95.700
126.73 111.800
126.82 143.400
126.91 115.100
127 106.600
127.09 116.600
127.18 118.100
127.27 115.600
127.36 129.500
127.45 122.900
127.54 125.800
127.63 116.300
127.72 139.300
127.81 158.800
127.9 123.100
127.99 129.400
128.08 138.200
128.17 148.200
128.26 127.000
128.35 127.500
128.44 132.200
128.53 127.100
128.62 118.400
128.71 107.300
128.8 114.300
128.89 126.400
128.98 134.400
129.07 138.800
129.16 155.900
129.25 148.300
129.34 136.900
129.43 121.600
129.52 118.600
129.61 137.500
129.7 126.900
129.79 142.800
129.88 144.600
129.97 146.900
130.06 151.900
130.15 129.600
130.24 128.000
130.33 132.500
130.42 138.000
130.51 125.700
130.6 126.900
130.69 126.500
130.78 118.600
130.87 108.600
130.96 111.900
131 138.900