File: Data/Materials_HUB_Synchrotron_XRD/Lee-LiPSI4141-c_pallet_Q_XRD.xy
10.30000 3180.200
10.38500 3069.400
10.47000 3018.100
10.55500 2994.700
10.64000 2936.800
10.72500 2953.600
10.81000 2826.700
10.89500 2807.300
10.98000 2666.500
11.06500 2790.700
11.15000 2810.400
11.23500 2647.400
11.32000 2561.600
11.40500 2544.100
11.49000 2410.100
11.57500 2284.200
11.66000 2218.200
11.74500 2339.500
11.83000 2210.500
11.91500 2117.700
12.00000 2273.400
12.08500 2160.200
12.17000 2085.700
12.25500 2124.800
12.34000 2027.600
12.42500 1979.900
12.51000 2131.500
12.59500 1964.400
12.68000 2023.400
12.76500 2024.700
12.85000 1993.300
12.93500 1997.300
13.02000 2001.500
13.10500 1866.900
13.19000 1941.400
13.27500 1860.000
13.36000 1956.700
13.44500 1916.300
13.53000 1833.200
13.61500 1720.400
13.70000 1886.700
13.78500 1756.200
13.87000 1860.300
13.95500 1763.600
14.04000 1939.600
14.12500 1735.100
14.21000 1759.400
14.29500 1788.800
14.38000 1860.800
14.46500 1785.800
14.55000 1772.400
14.63500 1820.800
14.72000 1807.200
14.80500 2984.900
14.89000 1776.500
14.97500 2387.500
15.06000 1907.500
15.14500 1891.800
15.23000 1813.200
15.31500 1831.400
15.40000 1907.700
15.48500 1902.900
15.57000 1965.200
15.65500 1989.900
15.74000 1933.400
15.82500 2040.900
15.91000 2075.100
15.99500 1890.700
16.08000 1992.400
16.16500 1972.700
16.25000 2076.200
16.33500 2195.000
16.42000 2095.600
16.50500 2048.800
16.59000 2097.300
16.67500 2083.200
16.76000 2181.000
16.84500 2126.000
16.93000 2154.700
17.01500 2163.800
17.10000 2230.000
17.18500 2216.400
17.27000 2257.100
17.35500 2186.900
17.44000 2412.700
17.52500 3251.500
17.61000 2425.100
17.69500 2522.800
17.78000 2394.500
17.86500 2484.600
17.95000 2379.300
18.03500 2463.700
18.12000 2504.300
18.20500 2477.000
18.29000 5014.700
18.37500 2657.100
18.46000 2709.400
18.54500 2507.400
18.63000 2634.400
18.71500 2662.700
18.80000 2542.400
18.88500 2617.000
18.97000 2662.300
19.05500 2563.000
19.14000 2574.300
19.22500 2683.500
19.31000 2562.400
19.39500 2576.300
19.48000 2651.300
19.56500 2599.000
19.65000 2604.500
19.73500 2509.900
19.82000 2603.800
19.90500 2569.700
19.99000 2461.000
20.07500 2469.200
20.16000 2536.300
20.24500 2408.400
20.33000 2357.400
20.41500 2224.100
20.50000 2430.500
20.58500 2299.400
20.67000 2426.600
20.75500 2538.900
20.84000 2307.100
20.92500 2433.800
21.01000 14746.100
21.09500 4281.400
21.18000 2555.900
21.26500 2103.500
21.35000 2041.900
21.43500 1885.700
21.52000 1918.700
21.60500 1941.100
21.69000 1750.400
21.77500 1766.200
21.86000 1849.300
21.94500 1724.000
22.03000 1676.600
22.11500 1564.700
22.20000 1550.600
22.28500 1601.600
22.37000 1562.100
22.45500 1506.500
22.54000 1579.200
22.62500 1433.900
22.71000 1551.600
22.79500 1460.900
22.88000 1411.900
22.96500 1326.900
23.05000 1353.000
23.13500 1325.300
23.22000 1335.000
23.30500 1287.100
23.39000 1252.300
23.47500 1182.200
23.56000 1267.400
23.64500 1209.700
23.73000 1201.900
23.81500 1200.300
23.90000 1150.500
23.98500 1123.100
24.07000 1095.000
24.15500 1069.100
24.24000 1093.500
24.32500 1062.100
24.41000 991.300
24.49500 1083.600
24.58000 1055.300
24.66500 1008.900
24.75000 1035.500
24.83500 922.500
24.92000 1072.500
25.00500 1021.100
25.09000 980.100
25.17500 912.100
25.26000 828.500
25.34500 958.500
25.43000 857.900
25.51500 902.400
25.60000 866.100
25.68500 1040.900
25.77000 846.500
25.85500 925.800
25.94000 864.500
26.02500 843.300
26.11000 829.200
26.19500 802.000
26.28000 790.800
26.36500 767.200
26.45000 789.000
26.53500 688.700
26.62000 804.900
26.70500 720.800
26.79000 746.400
26.87500 758.500
26.96000 720.400
27.04500 736.700
27.13000 745.200
27.21500 665.200
27.30000 672.600
27.38500 713.000
27.47000 747.500
27.55500 669.800
27.64000 757.200
27.72500 709.700
27.81000 805.300
27.89500 995.500
27.98000 8005.000
28.06500 1650.100
28.15000 778.400
28.23500 658.000
28.32000 610.400
28.40500 678.600
28.49000 659.900
28.57500 645.300
28.66000 644.000
28.74500 658.900
28.83000 652.200
28.91500 582.900
29.00000 631.900
29.08500 628.200
29.17000 642.200
29.25500 1139.100
29.34000 696.700
29.42500 1046.300
29.51000 1235.700
29.59500 706.800
29.68000 642.300
29.76500 695.100
29.85000 723.000
29.93500 614.800
30.02000 549.100
30.10500 597.900
30.19000 1164.200
30.27500 841.900
30.36000 589.000
30.44500 570.800
30.52500 581.000
30.61000 1426.100
30.69500 524.000
30.78000 557.400
30.86500 633.900
30.95000 482.900
31.03500 555.000
31.12000 501.000
31.20500 526.000
31.29000 565.200
31.37500 520.700
31.46000 468.000
31.54500 508.100
31.63000 500.500
31.71500 520.400
31.80000 541.500
31.88500 508.000
31.97000 701.000
32.05500 8368.600
32.14000 806.700
32.22500 512.600
32.31000 455.600
32.39500 471.800
32.48000 522.600
32.56500 512.200
32.65000 501.300
32.73500 485.900
32.82000 509.500
32.90500 506.600
32.99000 436.600
33.07500 441.600
33.16000 434.200
33.24500 421.800
33.33000 485.200
33.41500 509.700
33.50000 3018.900
33.58500 1789.600
33.67000 498.100
33.75500 427.100
33.84000 641.800
33.92500 426.200
34.01000 404.800
34.09500 455.200
34.18000 397.600
34.26500 413.400
34.35000 384.600
34.43500 390.600
34.52000 373.200
34.60500 407.500
34.69000 367.000
34.77500 381.000
34.86000 385.500
34.94500 363.700
35.03000 385.100
35.11500 404.300
35.20000 329.500
35.28500 445.500
35.37000 368.200
35.45500 346.700
35.54000 352.000
35.62500 312.700
35.71000 313.000
35.79500 312.900
35.88000 324.000
35.96500 285.500
36.05000 308.400
36.13500 296.500
36.22000 338.500
36.30500 535.000
36.39000 317.000
36.47500 313.100
36.56000 291.800
36.64500 303.000
36.73000 301.800
36.81500 371.500
36.90000 1891.300
36.98500 324.900
37.07000 347.700
37.15500 289.900
37.24000 253.800
37.32500 254.200
37.41000 227.900
37.49500 228.100
37.58000 216.300
37.66500 218.300
37.75000 257.200
37.83500 228.100
37.92000 225.300
38.00500 232.100
38.09000 199.300
38.17500 206.200
38.26000 205.500
38.34500 193.100
38.43000 213.100
38.51500 196.400
38.60000 421.400
38.68500 623.800
38.77000 280.000
38.85500 192.500
38.94000 216.500
39.02500 183.300
39.11000 179.700
39.19500 198.000
39.28000 214.600
39.36500 195.000
39.45000 178.800
39.53500 168.000
39.62000 174.400
39.70500 154.600
39.79000 172.300
39.87500 220.400
39.96000 157.600
40.04500 176.800
40.13000 156.300
40.21500 178.900
40.30000 166.100
40.38500 156.100
40.47000 165.700
40.55500 174.200
40.64000 148.800
40.72500 154.200
40.81000 163.700
40.89500 160.600
40.98000 151.400
41.06500 157.300
41.15000 152.500
41.23500 154.800
41.32000 210.600
41.40500 2175.000
41.49000 223.000
41.57500 170.700
41.66000 142.500
41.74500 141.500
41.83000 136.300
41.91500 146.600
42.00000 148.700
42.08500 159.200
42.17000 414.600
42.25500 186.700
42.34000 153.000
42.42500 157.000
42.51000 159.100
42.59500 224.300
42.68000 245.300
42.76500 2316.100
42.85000 263.600
42.93500 186.200
43.02000 1126.000
43.10500 152.100
43.19000 121.100
43.27500 125.100
43.36000 121.300
43.44500 125.900
43.53000 128.900
43.61500 112.500
43.70000 131.500
43.78500 179.100
43.87000 173.100
43.95500 122.100
44.04000 125.000
44.12500 101.200
44.21000 161.700
44.29500 236.500
44.38000 1754.600
44.46500 374.400
44.55000 140.300
44.63500 135.900
44.72000 110.500
44.80500 127.700
44.89000 112.400
44.97500 106.800
45.06000 131.700
45.14500 100.200
45.23000 103.700
45.31500 143.700
45.40000 166.100
45.48500 1008.300
45.57000 244.300
45.65500 206.000
45.74000 2191.200
45.82500 197.200
45.91000 128.700
45.99500 123.100
46.08000 154.000
46.16500 105.300
46.25000 103.200
46.33500 110.000
46.42000 92.200
46.50500 117.100
46.59000 140.300
46.67500 220.500
46.76000 145.900
46.84500 437.800
46.93000 325.100
47.01500 138.600
47.10000 132.200
47.18500 108.900
47.27000 139.200
47.35500 1331.300
47.44000 380.100
47.52500 173.000
47.61000 136.800
47.69500 125.200
47.78000 100.900
47.86500 98.800
47.95000 110.200
48.03500 140.100
48.12000 962.300
48.20500 215.200
48.29000 136.400
48.37500 109.000
48.46000 132.900
48.54500 173.700
48.63000 3311.400
48.71500 184.800
48.80000 124.000
48.88500 134.400
48.97000 111.000
49.05500 94.600
49.14000 104.800
49.22500 112.400
49.31000 112.000
49.39500 101.000
49.48000 149.400
49.56500 374.500
49.65000 464.800
49.73500 160.100
49.82000 113.400
49.90500 98.000
49.99000 121.600
50.07500 99.700
50.16000 95.100
50.24500 106.900
50.33000 140.400
50.41500 144.300
50.50000 111.900
50.58000 94.200
50.66500 230.900
50.75000 129.300
50.83500 104.400
50.92000 100.000
51.00500 176.300
51.09000 706.200
51.17500 418.700
51.26000 127.900
51.34500 125.400
51.43000 117.700
51.51500 108.200
51.60000 120.200
51.68500 110.100
51.77000 107.000
51.85500 103.200
51.94000 118.100
52.02500 100.700
52.11000 115.200
52.19500 145.600
52.28000 422.300
52.36500 199.400
52.45000 100.500
52.53500 102.100
52.62000 93.600
52.70500 100.700
52.79000 121.900
52.87500 97.400
52.96000 99.000
53.04500 101.400
53.13000 72.900
53.21500 121.600
53.30000 149.800
53.38500 82.300
53.47000 93.700
53.55500 102.200
53.64000 80.000
53.72500 106.300
53.81000 100.400
53.89500 86.100
53.98000 94.900
54.06500 75.800
54.15000 117.800
54.23500 101.400
54.32000 136.200
54.40500 458.500
54.49000 259.300
54.57500 110.100
54.66000 87.200
54.74500 97.700
54.83000 89.500
54.91500 105.400
55.00000 97.200
55.08500 97.500
55.17000 122.700
55.25500 95.200
55.34000 106.500
55.42500 96.800
55.51000 157.400
55.59500 919.400
55.68000 208.600
55.76500 219.700
55.85000 1935.400
55.93500 326.800
56.02000 128.700
56.10500 112.900
56.19000 104.300
56.27500 110.200
56.36000 103.000
56.44500 104.800
56.53000 142.700
56.61500 391.300
56.70000 112.600
56.78500 101.700
56.87000 102.300
56.95500 169.000
57.04000 311.800
57.12500 112.800
57.21000 97.900
57.29500 95.900
57.38000 82.600
57.46500 80.500
57.55000 120.100
57.63500 241.700
57.72000 843.900
57.80500 173.300
57.89000 133.000
57.97500 95.300
58.06000 129.400
58.14500 702.500
58.23000 110.200
58.31500 111.000
58.40000 94.300
58.48500 93.000
58.57000 96.200
58.65500 79.400
58.74000 95.800
58.82500 97.300
58.91000 132.000
58.99500 102.900
59.08000 78.600
59.16500 77.800
59.25000 98.300
59.33500 87.600
59.42000 99.500
59.50500 92.400
59.59000 96.800
59.67500 92.200
59.76000 87.800
59.84500 101.000
59.93000 166.100
60.01500 105.200
60.10000 87.700
60.18500 77.900
60.27000 81.900
60.35500 97.900
60.44000 105.800
60.52500 97.200
60.61000 98.300
60.69500 167.500
60.78000 155.200
60.86500 139.700
60.95000 227.000
61.03500 1414.800
61.12000 360.500
61.20500 172.300
61.29000 136.100
61.37500 122.300
61.46000 215.500
61.54500 97.500
61.63000 105.600
61.71500 89.400
61.80000 91.100
61.88500 88.000
61.97000 95.500
62.05500 231.600
62.14000 137.400
62.22500 87.800
62.31000 86.400
62.39500 102.800
62.48000 89.700
62.56500 82.000
62.65000 88.900
62.73500 99.700
62.82000 82.400
62.90500 108.800
62.99000 107.900
63.07500 85.500
63.16000 112.300
63.24500 191.400
63.33000 1002.800
63.41500 262.700
63.50000 122.300
63.58500 109.800
63.67000 96.100
63.75500 97.000
63.84000 139.800
63.92500 830.600
64.01000 115.200
64.09500 107.600
64.18000 116.600
64.26500 174.900
64.35000 103.900
64.43500 97.900
64.52000 94.800
64.60500 133.700
64.69000 146.900
64.77500 115.900
64.86000 123.200
64.94500 403.300
65.03000 284.000
65.11500 122.200
65.20000 128.100
65.28500 139.000
65.37000 153.100
65.45500 124.200
65.54000 99.300
65.62500 82.400
65.71000 136.200
65.79500 90.400
65.88000 90.700
65.96500 114.000
66.05000 95.500
66.13500 111.900
66.22000 149.000
66.30500 564.000
66.39000 361.800
66.47500 123.600
66.56000 104.000
66.64500 185.800
66.73000 87.700
66.81500 78.200
66.90000 87.100
66.98500 89.100
67.07000 305.300
67.15500 92.900
67.24000 77.900
67.32500 74.500
67.41000 107.500
67.49500 111.500
67.58000 126.400
67.66500 92.500
67.75000 85.600
67.83500 87.200
67.92000 99.800
68.00500 96.200
68.09000 114.600
68.17500 95.500
68.26000 99.600
68.34500 84.100
68.43000 96.000
68.51500 79.800
68.60000 90.000
68.68500 141.300
68.77000 726.900
68.85500 308.000
68.94000 129.200
69.02500 111.900
69.11000 102.200
69.19500 102.900
69.28000 138.000
69.36500 199.700
69.45000 404.300
69.53500 287.400
69.62000 93.900
69.70500 92.600
69.79000 103.500
69.87500 86.200
69.96000 102.200
70.04500 94.900
70.13000 90.600
70.21500 111.200
70.30000 119.300
70.38500 215.300
70.47000 141.900
70.55000 108.100
70.63500 94.300
70.72000 86.000
70.80500 81.300
70.89000 82.100
70.97500 88.800
71.06000 116.400
71.14500 393.000
71.23000 118.000
71.31500 100.200
71.40000 81.700
71.48500 97.500
71.57000 87.400
71.65500 221.900
71.74000 107.200
71.82500 100.000
71.91000 95.800
71.99500 95.300
72.08000 206.300
72.16500 1342.600
72.25000 145.200
72.33500 94.600
72.42000 113.900
72.50500 122.300
72.59000 170.800
72.67500 104.600
72.76000 94.500
72.84500 90.100
72.93000 96.800
73.01500 104.000
73.10000 307.100
73.18500 460.900
73.27000 190.700
73.35500 134.300
73.44000 303.700
73.52500 188.000
73.61000 118.500
73.69500 107.200
73.78000 135.600
73.86500 173.500
73.95000 99.700
74.03500 86.100
74.12000 69.400
74.20500 80.100
74.29000 68.500
74.37500 80.500
74.46000 91.000
74.54500 110.500
74.63000 138.100
74.71500 133.300
74.80000 618.000
74.88500 200.500
74.97000 114.800
75.05500 106.100
75.14000 118.200
75.22500 93.600
75.31000 92.200
75.39500 108.200
75.48000 114.200
75.56500 345.100
75.65000 145.100
75.73500 83.400
75.82000 109.500
75.90500 97.900
75.99000 102.200
76.07500 202.500
76.16000 205.700
76.24500 98.800
76.33000 89.100
76.41500 94.300
76.50000 84.800
76.58500 78.700
76.67000 87.500
76.75500 93.200
76.84000 79.900
76.92500 87.200
77.01000 88.400
77.09500 89.300
77.18000 105.400
77.26500 85.000
77.35000 79.300
77.43500 80.400
77.52000 86.500
77.60500 86.100
77.69000 92.700
77.77500 128.500
77.86000 123.200
77.94500 88.300
78.03000 73.200
78.11500 71.100
78.20000 88.000
78.28500 71.300
78.37000 74.200
78.45500 76.900
78.54000 79.200
78.62500 78.100
78.71000 74.900
78.79500 82.000
78.88000 86.100
78.96500 89.500
79.05000 129.200
79.13500 73.900
79.22000 74.100
79.30500 84.400
79.39000 98.000
79.47500 227.100
79.56000 106.300
79.64500 82.700
79.73000 90.800
79.81500 69.300
79.90000 103.700
79.98500 185.800
80.07000 134.400
80.15500 90.100
80.24000 124.100
80.32500 115.000
80.41000 99.900
80.49500 97.100
80.58000 175.400
80.66500 266.000
80.75000 104.600
80.83500 111.200
80.92000 137.300
81.00500 154.100
81.09000 95.500
81.17500 81.500
81.26000 91.800
81.34500 103.600
81.43000 83.500
81.51500 82.300
81.60000 75.500
81.68500 72.400
81.77000 89.200
81.85500 76.000
81.94000 92.500
82.02500 106.700
82.11000 134.600
82.19500 474.500
82.28000 290.600
82.36500 241.400
82.45000 110.400
82.53500 155.800
82.62000 208.800
82.70500 98.500
82.79000 93.500
82.87500 200.400
82.96000 128.200
83.04500 97.400
83.13000 105.500
83.21500 121.000
83.30000 413.400
83.38500 200.000
83.47000 101.300
83.55500 96.100
83.64000 99.400
83.72500 79.000
83.81000 87.700
83.89500 80.200
83.98000 80.400
84.06500 76.400
84.15000 90.900
84.23500 78.000
84.32000 89.300
84.40500 88.000
84.49000 131.500
84.57500 123.800
84.66000 146.400
84.74500 89.700
84.83000 87.700
84.91500 82.800
85.00000 91.300
85.08500 148.900
85.17000 103.800
85.25500 76.000
85.34000 73.000
85.42500 91.100
85.51000 80.100
85.59500 86.400
85.68000 79.600
85.76500 77.000
85.85000 78.000
85.93500 78.000
86.02000 103.300
86.10500 186.000
86.19000 276.600
86.27500 111.200
86.36000 99.600
86.44500 77.200
86.53000 98.100
86.61500 69.800
86.70000 72.500
86.78500 85.500
86.87000 87.800
86.95500 83.600
87.04000 102.300
87.12500 205.700
87.21000 130.400
87.29500 119.500
87.38000 113.800
87.46500 94.200
87.55000 118.900
87.63500 314.200
87.72000 283.800
87.80500 125.700
87.89000 157.400
87.97500 156.500
88.06000 145.200
88.14500 162.300
88.23000 138.300
88.31500 429.300
88.40000 160.000
88.48500 125.100
88.57000 249.800
88.65500 501.400
88.74000 131.700
88.82500 107.700
88.91000 97.100
88.99500 149.200
89.08000 107.000
89.16500 91.200
89.25000 97.200
89.33500 78.200
89.42000 91.300
89.50500 80.700
89.59000 78.800
89.67500 83.000
89.76000 82.300
89.84500 112.700
89.93000 168.800
90.01500 176.300
90.10000 112.600
90.18500 72.600
90.27000 85.700
90.35500 81.900
90.44000 87.300
90.52000 64.000
90.60500 67.100
90.69000 79.200
90.77500 76.100
90.86000 92.200
90.94500 120.200
91.03000 119.100
91.11500 88.900
91.20000 86.500
91.28500 92.800
91.37000 81.200
91.45500 77.800
91.54000 79.900
91.62500 83.800
91.71000 77.600
91.79500 65.800
91.88000 71.000
91.96500 72.300
92.05000 78.000
92.13500 71.600
92.22000 77.500
92.30500 80.200
92.39000 78.100
92.47500 91.800
92.56000 80.500
92.64500 104.000
92.73000 195.200
92.81500 100.300
92.90000 86.000
92.98500 94.600
93.07000 138.900
93.15500 98.400
93.24000 138.700
93.32500 94.100
93.41000 99.700
93.49500 87.000
93.58000 102.500
93.66500 141.500
93.75000 206.800
93.83500 191.400
93.92000 91.000
94.00500 82.400
94.09000 77.800
94.17500 88.500
94.26000 73.900
94.34500 101.700
94.43000 79.000
94.51500 84.800
94.60000 81.500
94.68500 83.900
94.77000 78.800
94.85500 79.000
94.94000 79.000
95.02500 79.400
95.11000 71.100
95.19500 88.400
95.28000 67.200
95.36500 94.500
95.45000 91.400
95.53500 73.100
95.62000 94.100
95.70500 188.100
95.79000 173.600
95.87500 107.000
95.96000 111.600
96.04500 91.500
96.13000 100.000
96.21500 169.800
96.30000 231.700
96.38500 108.100
96.47000 136.300
96.55500 357.700
96.64000 186.800
96.72500 112.000
96.81000 111.300
96.89500 126.500
96.98000 102.400
97.06500 86.200
97.15000 93.400
97.23500 77.200
97.32000 89.500
97.40500 86.200
97.49000 100.600
97.57500 182.800
97.66000 188.800
97.74500 105.500
97.83000 162.500
97.91500 179.600
98.00000 104.200
98.08500 82.100
98.17000 74.800
98.25500 90.500
98.34000 84.300
98.42500 87.900
98.51000 104.300
98.59500 180.400
98.68000 90.600
98.76500 71.100
98.85000 91.700
98.93500 86.300
99.02000 91.400
99.10500 122.100
99.19000 107.500
99.27500 88.800
99.36000 97.000
99.44500 139.600
99.53000 96.800
99.61500 81.300
99.70000 83.500
99.78500 190.900
99.87000 117.900
99.95500 90.000
100.04 81.500
100.125 86.300
100.21 72.300
100.295 67.400
100.38 79.000
100.465 81.800
100.55 75.300
100.635 65.600
100.72 80.300
100.805 84.100
100.89 69.900
100.975 82.400
101.06 76.300
101.145 82.000
101.23 88.700
101.315 126.100
101.4 95.900
101.485 74.500
101.57 82.800
101.655 69.100
101.74 73.200
101.825 88.500
101.91 91.600
101.995 138.300
102.08 134.100
102.165 74.900
102.25 105.900
102.335 90.500
102.42 106.400
102.505 214.100
102.59 100.400
102.675 94.800
102.76 80.400
102.845 77.700
102.93 87.200
103.015 92.300
103.1 74.200
103.185 83.600
103.27 78.200
103.355 90.400
103.44 84.100
103.525 71.200
103.61 73.900
103.695 66.000
103.78 64.200
103.865 73.600
103.95 97.000
104.035 124.700
104.12 83.200
104.205 96.200
104.29 127.600
104.375 105.800
104.46 80.200
104.545 85.000
104.63 77.600
104.715 95.500
104.8 79.100
104.885 92.400
104.97 81.200
105.055 91.300
105.14 87.100
105.225 105.600
105.31 234.400
105.395 339.200
105.48 176.500
105.565 96.200
105.65 80.100
105.735 61.800
105.82 79.600
105.905 72.900
105.99 57.500
106.075 89.900
106.16 89.000
106.245 86.400
106.33 124.800
106.415 162.700
106.5 95.000
106.585 85.600
106.67 108.500
106.755 96.600
106.84 143.600
106.925 220.000
107.01 246.100
107.095 128.400
107.18 112.300
107.265 76.900
107.35 71.600
107.435 91.900
107.52 76.700
107.605 87.400
107.69 71.700
107.775 104.200
107.86 148.200
107.945 122.100
108.03 74.000
108.115 81.900
108.2 78.200
108.285 77.300
108.37 86.600
108.455 80.700
108.54 80.800
108.625 75.300
108.71 61.900
108.795 80.500
108.88 79.800
108.965 74.200
109.05 74.100
109.135 83.500
109.22 91.600
109.305 103.400
109.39 225.200
109.475 101.200
109.56 95.500
109.645 71.700
109.73 78.500
109.815 67.000
109.9 90.800
109.985 72.400
110.07 82.700
110.155 72.600
110.24 77.800
110.325 110.600
110.41 103.900
110.495 85.500
110.575 75.400
110.66 85.300
110.745 83.200
110.83 95.800
110.915 122.300
111 192.100
111.085 135.500
111.17 99.400
111.255 82.700
111.34 99.500
111.425 79.900
111.51 96.500
111.595 87.900
111.68 120.500
111.765 108.800
111.85 103.800
111.935 120.300
112.02 308.100
112.105 127.600
112.19 86.500
112.275 86.100
112.36 74.800
112.445 90.500
112.53 74.700
112.615 74.700
112.7 83.100
112.785 75.700
112.87 89.400
112.955 106.700
113.04 80.400
113.125 101.200
113.21 91.800
113.295 95.200
113.38 125.400
113.465 85.900
113.55 76.600
113.635 81.900
113.72 71.800
113.805 71.400
113.89 54.900
113.975 70.900
114.06 76.300
114.145 75.700
114.23 72.200
114.315 70.900
114.4 75.300
114.485 65.200
114.57 73.400
114.655 83.600
114.74 62.400
114.825 68.100
114.91 92.400
114.995 78.800
115.08 87.100
115.165 101.500
115.25 81.400
115.335 76.800
115.42 80.200
115.505 81.300
115.59 78.500
115.675 84.400
115.76 123.900
115.845 304.400
115.93 179.800
116.015 118.100
116.1 103.000
116.185 92.000
116.27 82.500
116.355 83.500
116.44 90.000
116.525 155.700
116.61 103.800
116.695 96.700
116.78 88.900
116.865 68.900
116.95 71.500
117.035 66.000
117.12 68.500
117.205 58.300
117.29 78.700
117.375 84.700
117.46 87.100
117.545 86.600
117.63 93.600
117.715 163.500
117.8 107.000
117.885 73.200
117.97 71.400
118.055 69.100
118.14 74.400
118.225 76.000
118.31 60.000
118.395 67.100
118.48 60.400
118.565 75.400
118.65 86.600
118.735 74.600
118.82 97.500
118.905 85.700
118.99 88.900
119.075 74.200
119.16 82.100
119.245 81.800
119.33 123.500
119.415 81.000
119.5 82.400
119.585 65.200
119.67 89.000
119.755 97.800
119.84 70.400
119.925 79.900
120.01 86.900
120.095 91.400
120.18 106.300
120.265 85.900
120.35 90.800
120.435 99.800
120.52 123.100
120.605 92.500
120.69 96.100
120.775 83.700
120.86 194.900
120.945 148.800
121.03 95.100
121.115 94.100
121.2 83.700
121.285 86.400
121.37 91.800
121.455 79.700
121.54 94.500
121.625 79.800
121.71 73.500
121.795 67.100
121.88 76.600
121.965 86.400
122.05 112.800
122.135 139.600
122.22 92.400
122.305 109.800
122.39 107.700
122.475 95.100
122.56 65.900
122.645 80.800
122.73 59.800
122.815 64.900
122.9 71.900
122.985 76.300
123.07 71.000
123.155 94.500
123.24 129.300
123.325 131.300
123.41 85.900
123.495 83.400
123.58 97.000
123.665 88.800
123.75 109.000
123.835 123.600
123.92 83.800
124.005 81.500
124.09 74.600
124.175 75.100
124.26 70.400
124.345 66.300
124.43 76.400
124.515 75.500
124.6 64.900
124.685 65.700
124.77 69.300
124.855 73.300
124.94 74.200
125.025 63.800
125.11 60.700
125.195 67.800
125.28 90.900
125.365 80.200
125.45 68.600
125.535 86.700
125.62 68.100
125.705 67.100
125.79 63.400
125.875 80.700
125.96 72.100
126.045 76.000
126.13 56.600
126.215 84.300
126.3 77.700
126.385 76.100
126.47 70.300
126.555 69.700
126.64 91.100
126.725 144.600
126.81 94.300
126.895 79.900
126.98 70.800
127.065 65.600
127.15 65.000
127.235 63.400
127.32 70.100
127.405 73.500
127.49 78.900
127.575 54.900
127.66 79.200
127.745 72.500
127.83 77.600
127.915 78.200
128 81.100
128.085 75.700
128.17 73.100
128.255 82.300
128.34 82.800
128.425 84.300
128.51 99.700
128.595 100.200
128.68 113.800
128.765 100.700
128.85 86.300
128.935 105.600
129.02 103.400
129.105 113.600
129.19 126.200
129.275 101.300
129.36 98.200
129.445 159.700
129.53 145.900
129.615 82.600
129.7 91.800
129.785 96.300
129.87 70.200
129.955 72.500
130.04 79.800
130.125 78.100
130.21 81.900
130.295 81.400
130.38 69.300
130.465 70.900
130.5 68.900