File: Data/Materials_HUB_Synchrotron_XRD/Lee-LSPS101212-c(6E)-600C_outP_xB_XRD.xy
10.00000 4850.400
10.09000 4538.000
10.18000 4581.700
10.27000 4256.000
10.36000 4531.300
10.45000 4262.500
10.54000 4101.300
10.63000 4125.200
10.72000 3848.000
10.81000 3886.300
10.90000 4067.600
10.99000 3698.400
11.08000 3787.400
11.17000 3753.500
11.26000 3473.600
11.35000 3462.100
11.44000 3486.800
11.53000 3327.500
11.62000 3383.600
11.71000 3372.100
11.80000 3198.000
11.89000 3106.700
11.98000 3035.600
12.07000 3168.300
12.16000 3044.300
12.25000 4091.900
12.34000 3266.600
12.43000 3021.500
12.52000 2862.000
12.61000 3104.400
12.70000 2818.900
12.79000 2881.000
12.88000 2869.300
12.97000 2613.900
13.06000 2596.400
13.15000 2751.900
13.24000 2715.800
13.33000 2599.300
13.42000 2597.600
13.51000 2568.400
13.60000 2623.900
13.69000 2598.000
13.78000 2642.800
13.87000 4512.000
13.96000 2655.300
14.05000 2581.700
14.14000 2623.500
14.23000 2667.900
14.32000 5012.100
14.41000 2880.700
14.50000 2564.600
14.59000 2588.700
14.68000 2639.700
14.77000 2551.200
14.86000 2675.000
14.95000 2617.800
15.04000 2709.900
15.13000 2677.700
15.22000 2628.600
15.31000 2672.500
15.40000 2689.800
15.49000 2730.300
15.58000 2651.100
15.67000 2794.900
15.76000 2796.400
15.85000 2831.700
15.94000 2852.300
16.03000 2888.100
16.12000 2860.500
16.21000 2953.800
16.30000 2824.000
16.39000 2994.300
16.48000 2939.300
16.57000 3077.800
16.66000 3030.500
16.75000 3103.900
16.84000 3197.600
16.93000 3167.800
17.02000 3199.500
17.11000 3369.100
17.20000 7532.400
17.29000 3720.700
17.38000 3253.400
17.47000 3315.200
17.56000 3438.700
17.65000 3432.100
17.74000 3419.400
17.83000 3523.600
17.92000 3603.600
18.01000 3574.000
18.10000 3573.900
18.19000 3653.100
18.28000 3628.900
18.37000 3705.600
18.46000 3718.600
18.55000 3614.600
18.64000 3778.100
18.73000 3726.900
18.82000 3835.500
18.91000 3780.100
19.00000 3840.100
19.09000 3861.600
19.18000 3752.600
19.27000 3782.900
19.36000 3872.800
19.45000 3739.200
19.54000 3679.300
19.63000 3769.800
19.72000 3795.900
19.81000 3590.800
19.90000 3712.000
19.99000 8707.400
20.08000 5262.500
20.17000 3717.700
20.26000 3763.000
20.35000 12815.900
20.44000 3537.700
20.53000 3440.700
20.62000 3284.100
20.71000 3278.500
20.80000 3210.800
20.89000 3162.700
20.98000 3033.200
21.07000 2953.500
21.16000 2944.900
21.25000 2906.100
21.34000 2787.900
21.43000 2817.600
21.52000 2738.400
21.61000 2745.200
21.70000 2746.200
21.79000 2599.200
21.88000 2541.500
21.97000 2387.800
22.06000 2478.300
22.15000 2413.300
22.24000 2311.900
22.33000 2273.200
22.42000 2312.700
22.51000 2211.400
22.60000 2119.100
22.69000 2075.700
22.78000 2138.200
22.87000 1921.400
22.96000 2077.600
23.05000 1946.600
23.14000 1978.900
23.23000 2191.800
23.32000 2229.100
23.41000 1838.900
23.50000 1848.400
23.59000 1804.200
23.68000 1696.900
23.77000 1874.900
23.86000 6831.600
23.95000 1763.100
24.04000 1604.500
24.13000 1571.500
24.22000 1611.000
24.31000 1519.200
24.40000 1511.700
24.49000 1441.100
24.58000 1488.300
24.67000 1716.700
24.76000 2055.200
24.85000 1499.300
24.94000 1453.200
25.03000 1379.400
25.12000 1349.700
25.21000 1331.300
25.30000 1350.800
25.39000 1373.200
25.48000 1365.700
25.57000 1242.000
25.66000 1256.300
25.75000 1224.300
25.84000 1187.100
25.93000 1260.400
26.02000 1230.000
26.11000 1222.500
26.20000 1255.300
26.29000 1206.700
26.38000 1179.400
26.47000 1192.000
26.56000 1170.300
26.65000 1300.300
26.74000 3705.600
26.83000 3484.100
26.92000 1189.300
27.01000 1243.600
27.10000 1502.700
27.19000 1098.500
27.28000 1155.400
27.37000 1090.000
27.46000 1039.800
27.55000 1004.400
27.64000 1049.200
27.73000 982.400
27.82000 1038.600
27.91000 1079.800
28.00000 1162.400
28.09000 1032.600
28.18000 1061.400
28.27000 1046.000
28.36000 969.700
28.45000 990.700
28.54000 919.300
28.63000 962.900
28.72000 913.200
28.81000 998.500
28.90000 1116.700
28.99000 1143.300
29.08000 989.700
29.17000 1037.000
29.26000 2503.000
29.35000 12211.600
29.44000 1751.400
29.53000 1013.300
29.62000 945.900
29.71000 933.700
29.80000 1285.900
29.89000 1079.400
29.98000 970.900
30.07000 883.900
30.16000 891.800
30.25000 853.800
30.34000 832.300
30.43000 889.900
30.52000 838.200
30.61000 817.800
30.70000 843.500
30.79000 809.200
30.88000 806.900
30.97000 832.700
31.06000 889.500
31.15000 961.400
31.24000 851.600
31.33000 839.900
31.42000 892.000
31.51000 1070.700
31.60000 1180.300
31.69000 756.500
31.78000 769.900
31.87000 783.100
31.96000 769.900
32.05000 726.700
32.14000 806.800
32.23000 1130.300
32.32000 852.900
32.41000 1048.900
32.50000 1238.800
32.59000 872.100
32.68000 756.100
32.77000 729.600
32.86000 720.200
32.95000 734.700
33.04000 767.500
33.13000 753.100
33.22000 1843.500
33.31000 921.600
33.40000 689.300
33.49000 750.300
33.58000 659.800
33.67000 687.400
33.76000 710.000
33.85000 725.100
33.94000 709.700
34.03000 687.600
34.12000 725.400
34.21000 699.300
34.30000 620.800
34.39000 687.800
34.48000 648.700
34.57000 616.500
34.66000 636.000
34.75000 636.700
34.84000 683.600
34.93000 643.800
35.02000 620.900
35.11000 666.900
35.20000 669.400
35.29000 685.500
35.38000 723.300
35.47000 1806.000
35.56000 668.700
35.65000 567.000
35.74000 603.600
35.83000 618.400
35.92000 610.300
36.01000 559.300
36.10000 591.900
36.19000 552.500
36.28000 697.500
36.37000 3009.100
36.46000 1650.100
36.55000 667.500
36.64000 598.100
36.73000 610.400
36.82000 517.600
36.91000 516.200
37.00000 492.300
37.09000 497.700
37.18000 505.500
37.27000 452.500
37.36000 489.700
37.45000 1209.500
37.54000 821.400
37.63000 529.800
37.72000 458.200
37.81000 558.000
37.90000 528.200
37.99000 453.000
38.08000 417.700
38.17000 421.700
38.26000 396.100
38.35000 447.300
38.44000 371.400
38.53000 402.500
38.62000 366.500
38.71000 366.400
38.80000 408.100
38.89000 394.400
38.98000 417.400
39.07000 387.300
39.16000 347.800
39.25000 356.700
39.34000 380.500
39.43000 349.200
39.52000 343.600
39.61000 349.300
39.70000 333.400
39.79000 401.000
39.88000 512.800
39.97000 347.000
40.06000 363.600
40.15000 344.200
40.24000 318.400
40.33000 324.500
40.42000 338.000
40.51000 360.700
40.60000 354.900
40.69000 974.700
40.78000 541.500
40.87000 377.400
40.96000 326.300
41.05000 346.300
41.14000 354.600
41.23000 366.900
41.32000 1150.900
41.41000 4353.000
41.50000 908.400
41.59000 364.000
41.68000 296.000
41.77000 288.900
41.86000 351.600
41.95000 452.400
42.04000 1666.500
42.13000 814.100
42.22000 368.700
42.31000 371.500
42.40000 395.700
42.49000 342.900
42.58000 337.500
42.67000 288.900
42.76000 251.300
42.85000 236.300
42.94000 286.600
43.03000 322.600
43.12000 304.000
43.21000 273.400
43.30000 314.800
43.39000 503.300
43.48000 298.800
43.57000 273.400
43.66000 226.600
43.75000 265.600
43.84000 458.100
43.93000 434.300
44.02000 326.400
44.11000 276.700
44.20000 241.600
44.29000 234.200
44.38000 250.400
44.47000 243.000
44.56000 256.500
44.65000 239.700
44.74000 234.000
44.83000 239.100
44.92000 280.000
45.01000 371.600
45.10000 1055.800
45.19000 1073.500
45.28000 350.100
45.37000 274.300
45.46000 226.600
45.55000 245.000
45.64000 236.200
45.73000 242.100
45.82000 231.500
45.91000 221.400
46.00000 231.200
46.09000 268.600
46.18000 234.000
46.27000 238.700
46.36000 296.200
46.45000 255.600
46.54000 411.400
46.63000 294.100
46.72000 294.000
46.81000 524.000
46.90000 338.000
46.99000 349.500
47.08000 1500.500
47.17000 4655.200
47.26000 1159.100
47.35000 382.300
47.44000 306.200
47.53000 306.500
47.62000 413.400
47.71000 267.800
47.80000 247.900
47.89000 242.300
47.98000 317.500
48.07000 268.500
48.16000 208.900
48.25000 229.100
48.34000 211.600
48.43000 205.600
48.52000 244.100
48.61000 257.600
48.70000 460.700
48.79000 938.700
48.88000 587.600
48.97000 297.800
49.06000 230.300
49.15000 215.900
49.24000 230.100
49.33000 200.100
49.42000 210.800
49.51000 220.400
49.60000 210.000
49.69000 196.600
49.78000 189.400
49.87000 199.800
49.96000 222.500
50.05000 195.400
50.14000 225.900
50.23000 214.200
50.32000 230.500
50.41000 201.500
50.50000 192.900
50.59000 215.300
50.68000 209.300
50.77000 198.700
50.86000 191.000
50.95000 204.700
51.04000 225.900
51.13000 242.000
51.22000 255.900
51.31000 259.700
51.40000 337.600
51.49000 874.700
51.58000 937.000
51.67000 343.500
51.76000 294.300
51.85000 441.700
51.94000 307.200
52.03000 440.900
52.12000 702.200
52.21000 1239.000
52.30000 1306.200
52.39000 492.700
52.48000 299.800
52.57000 232.300
52.66000 212.500
52.75000 187.700
52.84000 272.600
52.93000 652.200
53.02000 514.900
53.11000 258.100
53.20000 219.500
53.29000 276.000
53.38000 374.100
53.47000 443.100
53.56000 649.000
53.65000 290.800
53.74000 192.500
53.83000 190.600
53.92000 198.800
54.01000 191.400
54.10000 231.600
54.19000 197.600
54.28000 217.000
54.37000 246.500
54.46000 587.800
54.55000 929.700
54.64000 567.000
54.73000 346.500
54.82000 212.300
54.91000 224.100
55.00000 202.000
55.09000 221.300
55.18000 281.700
55.27000 255.200
55.36000 216.400
55.45000 264.800
55.54000 686.600
55.63000 1084.100
55.72000 460.200
55.81000 229.300
55.90000 240.400
55.99000 172.600
56.08000 218.200
56.17000 177.500
56.26000 211.000
56.35000 190.000
56.44000 209.900
56.53000 207.800
56.62000 190.800
56.71000 164.700
56.80000 163.800
56.89000 197.600
56.98000 318.400
57.07000 456.600
57.16000 268.600
57.25000 442.300
57.34000 693.000
57.43000 320.400
57.52000 250.300
57.61000 389.500
57.70000 1076.500
57.79000 786.800
57.88000 394.200
57.97000 257.300
58.06000 210.700
58.15000 195.700
58.24000 205.900
58.33000 194.200
58.42000 178.600
58.51000 202.800
58.60000 195.000
58.69000 328.900
58.78000 808.100
58.87000 489.300
58.96000 256.900
59.05000 203.900
59.14000 201.100
59.23000 200.200
59.32000 165.100
59.41000 190.200
59.50000 195.600
59.59000 225.600
59.68000 228.800
59.77000 291.000
59.86000 729.800
59.95000 1121.500
60.04000 587.000
60.13000 270.100
60.22000 224.900
60.31000 225.500
60.40000 532.000
60.49000 889.400
60.58000 376.200
60.67000 210.900
60.76000 196.800
60.85000 185.500
60.94000 178.600
61.03000 188.000
61.12000 198.100
61.21000 246.200
61.30000 204.900
61.39000 171.600
61.48000 172.600
61.57000 170.000
61.66000 151.600
61.75000 180.100
61.84000 287.000
61.93000 365.300
62.02000 399.900
62.11000 253.000
62.20000 207.800
62.29000 168.600
62.38000 191.000
62.47000 351.900
62.56000 248.300
62.65000 197.800
62.74000 192.100
62.83000 191.400
62.92000 232.400
63.01000 213.300
63.10000 190.900
63.19000 175.500
63.28000 144.700
63.37000 171.600
63.46000 158.600
63.55000 167.100
63.64000 179.800
63.73000 150.300
63.82000 296.100
63.91000 646.100
64.00000 744.800
64.09000 455.300
64.18000 237.700
64.27000 185.700
64.36000 182.100
64.45000 208.200
64.54000 227.900
64.63000 252.800
64.72000 346.000
64.81000 472.500
64.90000 492.000
64.99000 270.200
65.08000 171.000
65.17000 175.500
65.26000 171.900
65.35000 187.200
65.44000 262.600
65.53000 270.400
65.62000 179.500
65.71000 185.800
65.80000 217.100
65.89000 222.800
65.98000 212.200
66.07000 176.600
66.16000 158.000
66.25000 172.700
66.34000 164.100
66.43000 141.100
66.52000 138.600
66.61000 152.700
66.70000 160.100
66.79000 228.000
66.88000 287.200
66.97000 209.300
67.06000 196.000
67.15000 164.800
67.24000 146.500
67.33000 143.300
67.42000 175.500
67.51000 182.600
67.60000 164.800
67.69000 187.600
67.78000 307.300
67.87000 490.500
67.96000 428.700
68.05000 256.900
68.14000 254.100
68.23000 203.200
68.32000 159.400
68.41000 167.900
68.50000 142.400
68.59000 151.900
68.68000 145.800
68.77000 154.700
68.86000 151.300
68.95000 171.300
69.04000 156.700
69.13000 143.900
69.22000 200.600
69.31000 225.600
69.40000 271.900
69.49000 169.200
69.58000 213.800
69.67000 373.500
69.76000 361.500
69.85000 215.800
69.94000 197.000
70.03000 174.900
70.12000 173.100
70.21000 169.100
70.30000 180.100
70.39000 166.600
70.48000 166.800
70.57000 261.000
70.66000 660.600
70.75000 571.300
70.84000 311.300
70.93000 216.100
71.02000 166.800
71.11000 160.300
71.20000 168.100
71.29000 183.900
71.38000 176.100
71.47000 168.700
71.56000 149.800
71.65000 169.200
71.74000 182.000
71.83000 223.600
71.92000 312.200
72.01000 346.400
72.10000 271.900
72.19000 301.700
72.28000 281.000
72.37000 193.000
72.46000 188.700
72.55000 170.000
72.64000 166.200
72.73000 138.500
72.82000 165.200
72.91000 166.900
73.00000 163.100
73.09000 160.500
73.18000 172.400
73.27000 168.500
73.36000 171.000
73.45000 241.000
73.54000 263.800
73.63000 241.500
73.72000 210.300
73.81000 180.100
73.90000 177.700
73.99000 162.200
74.08000 162.900
74.17000 183.100
74.26000 213.300
74.35000 277.600
74.44000 279.400
74.53000 244.100
74.62000 216.100
74.71000 186.500
74.80000 176.800
74.89000 181.500
74.98000 194.000
75.07000 206.000
75.16000 211.100
75.25000 219.000
75.34000 370.000
75.43000 414.800
75.52000 296.300
75.61000 217.200
75.70000 167.500
75.79000 176.600
75.88000 174.300
75.97000 198.700
76.06000 169.800
76.15000 200.300
76.24000 209.700
76.33000 226.300
76.42000 194.800
76.51000 200.300
76.60000 185.000
76.69000 172.200
76.78000 170.400
76.87000 179.800
76.96000 178.300
77.05000 178.400
77.14000 193.800
77.23000 246.000
77.32000 314.300
77.41000 206.300
77.50000 182.500
77.59000 182.400
77.68000 177.800
77.77000 188.600
77.86000 193.500
77.95000 217.500
78.04000 249.600
78.13000 236.200
78.22000 189.100
78.31000 181.800
78.40000 195.800
78.49000 156.400
78.58000 192.900
78.67000 166.800
78.76000 185.300
78.85000 220.500
78.94000 387.100
79.03000 567.000
79.12000 557.200
79.21000 450.900
79.30000 243.700
79.39000 247.600
79.48000 338.700
79.57000 555.100
79.66000 490.400
79.75000 262.700
79.84000 206.300
79.93000 184.800
80.02000 187.700
80.11000 195.100
80.20000 186.400
80.29000 196.800
80.38000 182.700
80.47000 168.200
80.56000 177.100
80.65000 174.600
80.74000 203.800
80.83000 251.100
80.92000 175.100
81.01000 182.900
81.10000 198.200
81.19000 163.800
81.28000 167.400
81.37000 172.100
81.46000 182.800
81.55000 194.200
81.64000 198.500
81.73000 233.200
81.82000 218.600
81.91000 183.300
82.00000 186.200
82.09000 175.400
82.18000 149.100
82.27000 149.600
82.36000 160.700
82.45000 195.500
82.54000 203.500
82.63000 289.600
82.72000 358.800
82.81000 262.200
82.90000 230.800
82.99000 201.700
83.08000 227.300
83.17000 250.700
83.26000 264.100
83.35000 243.200
83.44000 270.300
83.53000 313.800
83.62000 227.900
83.71000 197.300
83.80000 191.600
83.89000 172.500
83.98000 199.900
84.07000 161.200
84.16000 197.000
84.25000 162.600
84.34000 168.400
84.43000 196.600
84.52000 193.400
84.61000 155.600
84.70000 184.000
84.79000 138.000
84.88000 186.200
84.97000 172.800
85.06000 166.900
85.15000 163.400
85.24000 168.000
85.33000 199.700
85.42000 198.800
85.51000 195.800
85.60000 169.100
85.69000 182.500
85.78000 176.200
85.87000 178.900
85.96000 170.400
86.05000 151.500
86.14000 212.400
86.23000 207.400
86.32000 175.900
86.41000 194.000
86.50000 188.000
86.59000 193.300
86.68000 306.800
86.77000 459.800
86.86000 394.400
86.95000 305.300
87.04000 210.700
87.13000 194.600
87.22000 189.900
87.31000 166.700
87.40000 198.000
87.49000 196.500
87.58000 229.700
87.67000 289.900
87.76000 266.600
87.85000 258.100
87.94000 273.000
88.03000 309.600
88.12000 248.300
88.21000 226.000
88.30000 195.400
88.39000 209.700
88.48000 189.700
88.57000 197.900
88.66000 195.700
88.75000 274.200
88.84000 373.400
88.93000 379.100
89.02000 316.500
89.11000 267.600
89.20000 234.500
89.29000 169.400
89.38000 162.900
89.47000 196.200
89.56000 201.900
89.65000 205.400
89.74000 290.100
89.83000 309.600
89.92000 311.300
90.01000 271.900
90.10000 224.600
90.19000 221.900
90.28000 164.600
90.37000 182.800
90.46000 188.500
90.55000 185.100
90.64000 193.100
90.73000 191.300
90.82000 174.600
90.91000 195.100
91.00000 171.500
91.09000 187.900
91.18000 173.800
91.27000 208.900
91.36000 204.300
91.45000 199.700
91.54000 189.500
91.63000 210.300
91.72000 226.100
91.81000 210.800
91.90000 192.200
91.99000 180.900
92.08000 167.200
92.17000 179.500
92.26000 158.500
92.35000 246.300
92.44000 294.100
92.53000 326.300
92.62000 249.100
92.71000 245.600
92.80000 204.600
92.89000 191.500
92.98000 190.800
93.07000 182.500
93.16000 186.300
93.25000 148.500
93.34000 191.100
93.43000 212.400
93.52000 197.300
93.61000 212.200
93.70000 238.400
93.79000 286.500
93.88000 239.800
93.97000 228.800
94.06000 191.700
94.15000 181.400
94.24000 207.600
94.33000 177.700
94.42000 178.700
94.51000 185.700
94.60000 208.200
94.69000 199.600
94.78000 188.100
94.87000 181.800
94.96000 192.100
95.05000 237.900
95.14000 273.800
95.23000 279.500
95.32000 239.200
95.41000 233.400
95.50000 188.500
95.59000 168.800
95.68000 182.900
95.77000 145.000
95.86000 162.100
95.95000 148.900
96.04000 156.600
96.13000 189.400
96.22000 188.900
96.31000 160.100
96.40000 167.200
96.49000 156.900
96.58000 172.600
96.67000 184.600
96.76000 208.300
96.85000 225.900
96.94000 225.700
97.03000 275.200
97.12000 275.800
97.21000 231.800
97.30000 220.900
97.39000 241.100
97.48000 297.800
97.57000 266.500
97.66000 251.900
97.75000 212.400
97.84000 211.800
97.93000 180.200
98.02000 188.400
98.11000 181.900
98.20000 164.900
98.29000 175.200
98.38000 195.700
98.47000 169.800
98.56000 166.200
98.65000 181.500
98.74000 176.200
98.83000 207.300
98.92000 185.900
99.01000 176.200
99.10000 181.400
99.19000 178.500
99.28000 181.000
99.37000 196.400
99.46000 197.400
99.55000 175.900
99.64000 196.900
99.73000 219.300
99.82000 192.300
99.91000 219.100
100 171.700
100.09 169.700
100.18 183.300
100.27 182.700
100.36 199.000
100.45 186.000
100.54 211.700
100.63 225.600
100.72 193.500
100.81 197.100
100.9 159.700
100.99 173.500
101.08 176.600
101.17 150.900
101.26 173.500
101.35 167.400
101.44 163.000
101.53 179.500
101.62 153.700
101.71 188.600
101.8 166.600
101.89 160.000
101.98 163.200
102.07 189.000
102.16 189.500
102.25 160.500
102.34 190.400
102.43 171.800
102.52 163.800
102.61 168.000
102.7 188.300
102.79 199.700
102.88 179.300
102.97 157.100
103.06 170.300
103.15 157.900
103.24 166.300
103.33 185.200
103.42 217.700
103.51 184.900
103.6 181.300
103.69 177.800
103.78 168.000
103.87 181.500
103.96 153.900
104.05 168.100
104.14 195.600
104.23 209.300
104.32 295.600
104.41 240.000
104.5 228.000
104.59 222.700
104.68 232.300
104.77 231.400
104.86 258.400
104.95 228.200
105.04 217.300
105.13 230.100
105.22 192.400
105.31 175.400
105.4 171.300
105.49 178.400
105.58 187.600
105.67 172.900
105.76 165.800
105.85 167.600
105.94 212.300
106.03 232.700
106.12 252.200
106.21 228.300
106.3 211.400
106.39 186.200
106.48 175.000
106.57 145.800
106.66 186.700
106.75 198.600
106.84 206.400
106.93 192.100
107.02 188.200
107.11 197.600
107.2 211.100
107.29 176.700
107.38 207.600
107.47 182.900
107.56 183.800
107.65 166.500
107.74 177.900
107.83 194.300
107.92 189.000
108.01 216.800
108.1 205.200
108.19 228.200
108.28 222.600
108.37 239.700
108.46 237.900
108.55 221.000
108.64 203.200
108.73 234.300
108.82 248.900
108.91 275.600
109 275.600
109.09 220.300
109.18 211.700
109.27 192.800
109.36 176.600
109.45 154.500
109.54 206.300
109.63 165.700
109.72 175.300
109.81 179.800
109.9 167.700
109.99 169.700
110.08 152.100
110.17 168.200
110.26 147.300
110.35 161.200
110.44 151.000
110.53 161.400
110.62 146.800
110.71 185.200
110.8 174.900
110.89 185.200
110.98 197.800
111.07 169.500
111.16 181.900
111.25 163.700
111.34 185.400
111.43 170.200
111.52 162.500
111.61 169.100
111.7 196.800
111.79 212.200
111.88 227.100
111.97 206.500
112.06 181.500
112.15 187.900
112.24 156.800
112.33 165.700
112.42 159.100
112.51 158.700
112.6 151.300
112.69 153.600
112.78 158.800
112.87 157.500
112.96 137.200
113.05 173.600
113.14 170.400
113.23 183.500
113.32 179.100
113.41 152.900
113.5 166.900
113.59 189.400
113.68 170.100
113.77 181.300
113.86 185.000
113.95 182.600
114.04 172.500
114.13 172.200
114.22 154.600
114.31 158.400
114.4 154.500
114.49 176.100
114.58 192.900
114.67 197.100
114.76 212.300
114.85 213.300
114.94 150.000
115.03 184.300
115.12 164.300
115.21 148.800
115.3 171.300
115.39 154.300
115.48 153.000
115.57 181.600
115.66 162.200
115.75 166.300
115.84 154.200
115.93 149.700
116.02 156.800
116.11 215.000
116.2 250.800
116.29 265.800
116.38 281.700
116.47 246.200
116.56 216.700
116.65 186.600
116.74 198.600
116.83 160.400
116.92 160.400
117.01 171.100
117.1 170.700
117.19 164.500
117.28 196.800
117.37 183.300
117.46 157.600
117.55 176.900
117.64 154.300
117.73 156.500
117.82 158.200
117.91 168.300
118 172.400
118.09 172.700
118.18 154.500
118.27 160.900
118.36 159.600
118.45 136.100
118.54 139.400
118.63 162.100
118.72 147.700
118.81 157.800
118.9 135.400
118.99 147.300
119.08 130.100
119.17 137.600
119.26 132.100
119.35 145.200
119.44 171.500
119.53 146.100
119.62 147.300
119.71 179.100
119.8 184.400
119.89 168.400
119.98 155.300
120.07 156.600
120.16 140.000
120.25 187.900
120.34 161.700
120.43 172.100
120.52 199.800
120.61 186.000
120.7 203.500
120.79 176.400
120.88 202.900
120.97 174.800
121.06 168.300
121.15 150.400
121.24 159.500
121.33 160.300
121.42 170.400
121.51 141.000
121.6 163.900
121.69 143.900
121.78 152.400
121.87 167.100
121.96 171.600
122.05 159.400
122.14 148.200
122.23 150.100
122.32 139.300
122.41 152.300
122.5 150.300
122.59 198.800
122.68 167.900
122.77 216.000
122.86 200.400
122.95 203.000
123.04 175.000
123.13 195.400
123.22 159.400
123.31 186.500
123.4 177.500
123.49 154.000
123.58 162.900
123.67 143.900
123.76 136.700
123.85 183.100
123.94 163.100
124.03 170.500
124.12 166.300
124.21 182.200
124.3 177.200
124.39 176.500
124.48 163.300
124.57 161.000
124.66 139.800
124.75 151.100
124.84 174.900
124.93 150.100
125.02 163.900
125.11 156.800
125.2 154.500
125.29 168.700
125.38 147.400
125.47 150.900
125.56 138.400
125.65 153.800
125.74 165.300
125.83 194.600
125.92 176.200
126.01 194.800
126.1 219.200
126.19 206.200
126.28 189.500
126.37 197.200
126.46 166.600
126.55 178.700
126.64 151.300
126.73 160.300
126.82 138.900
126.91 151.900
127 154.000
127.09 138.400
127.18 168.100
127.27 170.000
127.36 168.100
127.45 169.700
127.54 165.300
127.63 145.600
127.72 149.100
127.81 163.100
127.9 148.500
127.99 161.300
128.08 138.800
128.17 142.600
128.26 180.600
128.35 138.300
128.44 192.000
128.53 187.100
128.62 174.400
128.71 188.800
128.8 183.000
128.89 201.500
128.98 169.200
129.07 149.500
129.16 214.500
129.25 181.900
129.34 185.200
129.43 158.300
129.52 176.300
129.61 162.600
129.7 148.600
129.79 175.800
129.88 148.900
129.97 158.200
130.06 141.500
130.15 158.200
130.24 145.100
130.33 169.700
130.42 177.800
130.51 146.000
130.6 155.400
130.69 143.800
130.78 177.900
130.87 161.500
130.96 153.000
131 159.600