File: Data/Materials_HUB_Synchrotron_XRD/Li6425_450_12h_AQ_b1_OYJ_XRD.xy
10.00000 2996.000
10.09000 2923.000
10.18000 2738.200
10.27000 2744.300
10.36000 2566.400
10.45000 2530.100
10.54000 2567.400
10.63000 2362.000
10.72000 2574.400
10.81000 2467.000
10.90000 2299.500
10.99000 2288.300
11.08000 2194.800
11.17000 2193.800
11.26000 2148.600
11.35000 2280.100
11.44000 2078.900
11.53000 1975.200
11.62000 2027.200
11.71000 2056.400
11.80000 2052.500
11.89000 1972.700
11.98000 1910.100
12.07000 1836.000
12.16000 1844.100
12.25000 1819.800
12.34000 1782.400
12.43000 1807.300
12.52000 1731.800
12.61000 1708.700
12.70000 1759.900
12.79000 1705.900
12.88000 1813.200
12.97000 1705.600
13.06000 1739.100
13.15000 1620.200
13.24000 1684.800
13.33000 1707.400
13.42000 1565.200
13.51000 1610.900
13.60000 1559.400
13.69000 1605.000
13.78000 1453.700
13.87000 1680.100
13.96000 1586.400
14.05000 1557.200
14.14000 1519.600
14.23000 1571.400
14.32000 1555.200
14.41000 1587.800
14.50000 1541.100
14.59000 1589.700
14.68000 1568.000
14.77000 1704.100
14.86000 1666.200
14.95000 1573.700
15.04000 1612.400
15.13000 1460.800
15.22000 1516.500
15.31000 1703.800
15.40000 1587.000
15.49000 1639.200
15.58000 1580.400
15.67000 1641.800
15.76000 1745.800
15.85000 1672.300
15.94000 1515.400
16.03000 1714.400
16.12000 1749.000
16.21000 1720.200
16.30000 1675.200
16.39000 1836.200
16.48000 1778.400
16.57000 1864.600
16.66000 1851.500
16.75000 1861.600
16.84000 1934.700
16.93000 1912.700
17.02000 2127.800
17.11000 5205.600
17.20000 2708.600
17.29000 2048.000
17.38000 2121.800
17.47000 2017.000
17.56000 2093.200
17.65000 2085.200
17.74000 2066.100
17.83000 2172.100
17.92000 2142.100
18.01000 2280.000
18.10000 2116.300
18.19000 2172.000
18.28000 2218.000
18.37000 2272.200
18.46000 2278.100
18.55000 2224.400
18.64000 2160.000
18.73000 2244.700
18.82000 2243.900
18.91000 2306.600
19.00000 2324.800
19.09000 2318.600
19.18000 2219.900
19.27000 2243.700
19.36000 2278.800
19.45000 2290.700
19.54000 2341.100
19.63000 2242.000
19.72000 2266.800
19.81000 2186.600
19.90000 2158.200
19.99000 2177.500
20.08000 2231.100
20.17000 2020.800
20.26000 2032.400
20.35000 2084.900
20.44000 2111.400
20.53000 2078.900
20.62000 1972.200
20.71000 2840.600
20.80000 2068.600
20.89000 1775.000
20.98000 1958.900
21.07000 1756.200
21.16000 1777.200
21.25000 1691.900
21.34000 1708.200
21.43000 1709.300
21.52000 1578.500
21.61000 1668.000
21.70000 1703.100
21.79000 1578.600
21.88000 1596.900
21.97000 1539.800
22.06000 1473.000
22.15000 1454.000
22.24000 1398.900
22.33000 1379.100
22.42000 1446.500
22.51000 1354.800
22.60000 1287.400
22.69000 1263.100
22.78000 1269.600
22.87000 1244.200
22.96000 1204.300
23.05000 1212.700
23.14000 1155.000
23.23000 1148.600
23.32000 1097.800
23.41000 1081.500
23.50000 1108.900
23.59000 1067.200
23.68000 1058.600
23.77000 1003.000
23.86000 996.900
23.95000 970.000
24.04000 984.900
24.13000 1046.100
24.22000 1589.000
24.31000 9598.900
24.40000 2927.600
24.49000 1002.000
24.58000 1021.900
24.67000 935.600
24.76000 875.300
24.85000 875.800
24.94000 843.900
25.03000 799.900
25.12000 799.900
25.21000 873.900
25.30000 816.900
25.39000 836.000
25.48000 781.800
25.57000 975.000
25.66000 2833.200
25.75000 1025.500
25.84000 831.200
25.93000 761.700
26.02000 773.800
26.11000 711.300
26.20000 734.900
26.29000 740.600
26.38000 672.000
26.47000 700.800
26.56000 679.300
26.65000 674.600
26.74000 658.000
26.83000 662.700
26.92000 682.900
27.01000 621.900
27.10000 1354.700
27.19000 626.700
27.28000 614.500
27.37000 629.400
27.46000 633.500
27.55000 660.400
27.64000 596.300
27.73000 564.500
27.82000 563.000
27.91000 610.900
28.00000 612.100
28.09000 609.400
28.18000 579.000
28.27000 566.900
28.36000 574.400
28.45000 621.400
28.54000 1097.900
28.63000 6774.900
28.72000 915.100
28.81000 581.400
28.90000 599.100
28.99000 536.800
29.08000 579.800
29.17000 554.600
29.26000 562.400
29.35000 647.500
29.44000 1196.600
29.53000 1036.200
29.62000 773.900
29.71000 1494.800
29.80000 1233.700
29.89000 3306.500
29.98000 1687.200
30.07000 588.600
30.16000 515.300
30.25000 518.700
30.34000 484.200
30.43000 487.800
30.52000 481.800
30.61000 484.900
30.70000 476.400
30.79000 469.700
30.88000 465.100
30.97000 468.700
31.06000 436.900
31.15000 470.100
31.24000 467.900
31.33000 435.500
31.42000 584.000
31.51000 404.100
31.60000 468.700
31.69000 438.500
31.78000 434.800
31.87000 435.100
31.96000 403.800
32.05000 449.900
32.14000 440.800
32.23000 429.200
32.32000 399.100
32.41000 429.200
32.50000 459.000
32.59000 393.800
32.68000 420.800
32.77000 399.500
32.86000 418.700
32.95000 458.400
33.04000 359.500
33.13000 432.500
33.22000 372.100
33.31000 391.200
33.40000 435.600
33.49000 421.200
33.58000 408.000
33.67000 383.200
33.76000 373.900
33.85000 336.700
33.94000 413.200
34.03000 358.500
34.12000 347.200
34.21000 355.800
34.30000 353.100
34.39000 364.300
34.48000 336.300
34.57000 376.000
34.66000 616.500
34.75000 573.400
34.84000 382.800
34.93000 326.800
35.02000 344.700
35.11000 348.400
35.20000 309.000
35.29000 316.100
35.38000 334.700
35.47000 307.600
35.56000 319.600
35.65000 324.000
35.74000 340.400
35.83000 319.100
35.92000 338.300
36.01000 306.200
36.10000 317.200
36.19000 303.300
36.28000 409.200
36.37000 360.200
36.46000 304.200
36.55000 287.100
36.64000 252.100
36.73000 240.500
36.82000 268.900
36.91000 234.100
37.00000 282.600
37.09000 261.700
37.18000 234.000
37.27000 228.800
37.36000 250.400
37.45000 240.000
37.54000 225.200
37.63000 213.700
37.72000 212.500
37.81000 271.600
37.90000 262.900
37.99000 233.700
38.08000 223.000
38.17000 210.500
38.26000 199.500
38.35000 232.100
38.44000 186.700
38.53000 235.400
38.62000 220.800
38.71000 251.600
38.80000 411.400
38.89000 1010.300
38.98000 2100.000
39.07000 366.600
39.16000 216.800
39.25000 208.900
39.34000 190.600
39.43000 212.400
39.52000 208.200
39.61000 206.700
39.70000 190.300
39.79000 180.800
39.88000 167.600
39.97000 158.600
40.06000 190.700
40.15000 175.900
40.24000 160.600
40.33000 167.500
40.42000 178.700
40.51000 145.700
40.60000 167.900
40.69000 152.100
40.78000 125.100
40.87000 163.300
40.96000 173.700
41.05000 165.700
41.14000 170.800
41.23000 176.400
41.32000 139.600
41.41000 160.800
41.50000 142.200
41.59000 150.500
41.68000 152.300
41.77000 140.000
41.86000 149.900
41.95000 158.100
42.04000 154.900
42.13000 202.900
42.22000 293.800
42.31000 208.300
42.40000 213.400
42.49000 466.900
42.58000 734.200
42.67000 563.300
42.76000 1038.200
42.85000 4971.100
42.94000 825.600
43.03000 240.400
43.12000 179.000
43.21000 131.800
43.30000 126.500
43.39000 139.200
43.48000 125.700
43.57000 114.200
43.66000 129.800
43.75000 128.800
43.84000 139.200
43.93000 109.400
44.02000 112.000
44.11000 116.900
44.20000 102.600
44.29000 116.000
44.38000 105.500
44.47000 123.000
44.56000 97.100
44.65000 106.000
44.74000 134.600
44.83000 106.700
44.92000 153.800
45.01000 488.300
45.10000 144.700
45.19000 120.300
45.28000 131.400
45.37000 129.700
45.46000 211.900
45.55000 883.700
45.64000 606.000
45.73000 203.900
45.82000 118.700
45.91000 109.800
46.00000 119.800
46.09000 117.800
46.18000 119.600
46.27000 104.900
46.36000 124.400
46.45000 111.600
46.54000 126.300
46.63000 121.500
46.72000 103.000
46.81000 121.300
46.90000 103.200
46.99000 120.500
47.08000 109.900
47.17000 112.100
47.26000 116.000
47.35000 139.800
47.44000 340.900
47.53000 201.800
47.62000 132.800
47.71000 114.100
47.80000 99.000
47.89000 99.200
47.98000 104.300
48.07000 122.500
48.16000 115.800
48.25000 93.400
48.34000 114.500
48.43000 96.400
48.52000 106.900
48.61000 85.900
48.70000 78.900
48.79000 95.700
48.88000 107.100
48.97000 101.700
49.06000 108.300
49.15000 112.200
49.24000 128.100
49.33000 115.300
49.42000 127.200
49.51000 113.500
49.60000 153.900
49.69000 349.800
49.78000 663.400
49.87000 3220.100
49.96000 1060.200
50.05000 335.100
50.14000 177.900
50.23000 248.600
50.32000 481.500
50.41000 518.500
50.50000 233.600
50.59000 132.900
50.68000 113.400
50.77000 98.800
50.86000 93.300
50.95000 103.900
51.04000 126.500
51.13000 98.600
51.22000 86.100
51.31000 96.000
51.40000 114.100
51.49000 105.100
51.58000 90.200
51.67000 105.600
51.76000 108.400
51.85000 105.800
51.94000 118.000
52.03000 111.600
52.12000 146.300
52.21000 191.400
52.30000 402.300
52.39000 181.900
52.48000 163.000
52.57000 145.600
52.66000 164.900
52.75000 286.800
52.84000 210.700
52.93000 213.000
53.02000 296.400
53.11000 1074.600
53.20000 474.000
53.29000 224.500
53.38000 100.000
53.47000 102.900
53.56000 100.900
53.65000 92.200
53.74000 90.600
53.83000 88.000
53.92000 91.800
54.01000 91.600
54.10000 86.300
54.19000 85.800
54.28000 81.200
54.37000 92.900
54.46000 87.000
54.55000 101.600
54.64000 110.600
54.73000 87.500
54.82000 96.200
54.91000 82.800
55.00000 105.500
55.09000 95.300
55.18000 88.500
55.27000 85.100
55.36000 93.200
55.45000 87.200
55.54000 96.000
55.63000 90.700
55.72000 107.100
55.81000 92.000
55.90000 153.400
55.99000 165.900
56.08000 222.800
56.17000 586.800
56.26000 1642.200
56.35000 376.500
56.44000 176.200
56.53000 123.100
56.62000 96.800
56.71000 88.900
56.80000 86.900
56.89000 87.800
56.98000 91.200
57.07000 85.800
57.16000 76.600
57.25000 67.900
57.34000 84.400
57.43000 95.400
57.52000 93.000
57.61000 86.500
57.70000 66.900
57.79000 96.200
57.88000 81.000
57.97000 93.600
58.06000 81.900
58.15000 101.600
58.24000 102.100
58.33000 103.400
58.42000 140.900
58.51000 365.000
58.60000 165.100
58.69000 108.400
58.78000 98.100
58.87000 91.800
58.96000 131.100
59.05000 167.800
59.14000 288.000
59.23000 918.200
59.32000 556.400
59.41000 202.000
59.50000 97.200
59.59000 109.800
59.68000 86.100
59.77000 89.000
59.86000 83.800
59.95000 85.500
60.04000 95.200
60.13000 84.200
60.22000 94.300
60.31000 71.200
60.40000 92.700
60.49000 70.400
60.58000 90.100
60.67000 79.900
60.76000 78.500
60.85000 77.900
60.94000 99.700
61.03000 79.200
61.12000 133.600
61.21000 123.000
61.30000 113.300
61.39000 109.000
61.48000 92.600
61.57000 107.200
61.66000 138.900
61.75000 136.300
61.84000 124.400
61.93000 98.700
62.02000 101.200
62.11000 123.600
62.20000 171.300
62.29000 88.100
62.38000 82.900
62.47000 74.100
62.56000 85.000
62.65000 72.400
62.74000 65.200
62.83000 92.100
62.92000 70.700
63.01000 83.900
63.10000 80.500
63.19000 86.400
63.28000 75.900
63.37000 70.900
63.46000 74.700
63.55000 71.100
63.64000 76.500
63.73000 69.400
63.82000 77.700
63.91000 81.400
64.00000 87.200
64.09000 85.700
64.18000 96.200
64.27000 101.400
64.36000 109.700
64.45000 102.900
64.54000 96.900
64.63000 87.300
64.72000 122.000
64.81000 117.400
64.90000 183.800
64.99000 396.000
65.08000 332.600
65.17000 166.400
65.26000 138.800
65.35000 165.400
65.44000 115.000
65.53000 157.600
65.62000 113.300
65.71000 83.000
65.80000 87.700
65.89000 90.300
65.98000 90.600
66.07000 95.300
66.16000 102.600
66.25000 88.100
66.34000 76.200
66.43000 94.600
66.52000 86.900
66.61000 88.800
66.70000 75.700
66.79000 103.700
66.88000 89.000
66.97000 89.500
67.06000 99.600
67.15000 96.500
67.24000 90.100
67.33000 111.900
67.42000 135.900
67.51000 200.600
67.60000 231.600
67.69000 423.100
67.78000 1447.000
67.87000 797.000
67.96000 395.200
68.05000 280.400
68.14000 137.300
68.23000 104.300
68.32000 104.100
68.41000 107.800
68.50000 98.300
68.59000 74.900
68.68000 92.700
68.77000 92.900
68.86000 111.500
68.95000 96.000
69.04000 96.400
69.13000 95.000
69.22000 98.000
69.31000 137.800
69.40000 155.000
69.49000 141.900
69.58000 123.900
69.67000 136.800
69.76000 244.200
69.85000 502.700
69.94000 337.900
70.03000 271.900
70.12000 168.900
70.21000 113.100
70.30000 94.000
70.39000 100.900
70.48000 83.000
70.57000 88.900
70.66000 94.200
70.75000 83.500
70.84000 79.400
70.93000 80.100
71.02000 90.300
71.11000 70.700
71.20000 83.400
71.29000 68.500
71.38000 75.600
71.47000 95.200
71.56000 80.300
71.65000 82.700
71.74000 79.800
71.83000 93.200
71.92000 74.400
72.01000 76.600
72.10000 88.200
72.19000 77.900
72.28000 193.800
72.37000 95.300
72.46000 74.400
72.55000 77.600
72.64000 81.800
72.73000 89.200
72.82000 91.600
72.91000 107.900
73.00000 110.400
73.09000 178.800
73.18000 369.000
73.27000 335.500
73.36000 158.800
73.45000 107.800
73.54000 83.900
73.63000 89.100
73.72000 91.500
73.81000 70.100
73.90000 83.100
73.99000 92.100
74.08000 80.100
74.17000 71.200
74.26000 85.100
74.35000 68.200
74.44000 83.000
74.53000 76.000
74.62000 87.100
74.71000 77.300
74.80000 81.700
74.89000 83.100
74.98000 78.800
75.07000 87.100
75.16000 88.400
75.25000 91.100
75.34000 99.400
75.43000 82.300
75.52000 102.900
75.61000 116.100
75.70000 169.500
75.79000 357.300
75.88000 427.500
75.97000 162.900
76.06000 108.700
76.15000 100.400
76.24000 89.500
76.33000 81.800
76.42000 84.300
76.51000 91.200
76.60000 97.000
76.69000 86.600
76.78000 91.000
76.87000 77.300
76.96000 87.200
77.05000 96.800
77.14000 80.100
77.23000 93.800
77.32000 73.100
77.41000 83.900
77.50000 75.600
77.59000 86.800
77.68000 97.300
77.77000 130.600
77.86000 151.300
77.95000 154.000
78.04000 126.700
78.13000 129.500
78.22000 137.100
78.31000 212.200
78.40000 456.100
78.49000 602.400
78.58000 241.800
78.67000 150.500
78.76000 119.100
78.85000 90.300
78.94000 92.300
79.03000 85.100
79.12000 89.300
79.21000 75.000
79.30000 91.200
79.39000 82.100
79.48000 91.300
79.57000 104.800
79.66000 73.100
79.75000 66.300
79.84000 70.300
79.93000 81.800
80.02000 90.400
80.11000 84.300
80.20000 92.600
80.29000 118.900
80.38000 200.400
80.47000 197.800
80.56000 115.300
80.65000 98.600
80.74000 114.200
80.83000 132.100
80.92000 173.200
81.01000 289.800
81.10000 314.000
81.19000 149.500
81.28000 101.300
81.37000 82.700
81.46000 93.100
81.55000 84.500
81.64000 79.800
81.73000 84.600
81.82000 73.500
81.91000 81.600
82.00000 85.400
82.09000 71.700
82.18000 89.800
82.27000 77.200
82.36000 69.300
82.45000 71.800
82.54000 77.000
82.63000 76.600
82.72000 69.700
82.81000 75.300
82.90000 88.000
82.99000 107.800
83.08000 111.000
83.17000 81.800
83.26000 76.300
83.35000 89.200
83.44000 131.500
83.53000 188.100
83.62000 204.800
83.71000 168.300
83.80000 127.800
83.89000 86.300
83.98000 87.700
84.07000 90.500
84.16000 88.600
84.25000 90.700
84.34000 72.100
84.43000 80.800
84.52000 100.600
84.61000 122.400
84.70000 115.400
84.79000 95.800
84.88000 103.700
84.97000 88.900
85.06000 77.300
85.15000 73.500
85.24000 85.600
85.33000 95.900
85.42000 88.700
85.51000 110.500
85.60000 108.000
85.69000 95.500
85.78000 100.600
85.87000 113.300
85.96000 124.600
86.05000 147.500
86.14000 255.900
86.23000 216.800
86.32000 121.000
86.41000 90.600
86.50000 89.300
86.59000 75.900
86.68000 82.900
86.77000 83.100
86.86000 95.200
86.95000 78.400
87.04000 88.500
87.13000 76.800
87.22000 68.400
87.31000 68.900
87.40000 66.200
87.49000 67.400
87.58000 91.000
87.67000 63.500
87.76000 69.500
87.85000 84.900
87.94000 68.200
88.03000 69.800
88.12000 98.300
88.21000 89.000
88.30000 89.100
88.39000 96.000
88.48000 105.300
88.57000 125.400
88.66000 219.300
88.75000 269.100
88.84000 165.000
88.93000 92.700
89.02000 78.600
89.11000 92.200
89.20000 89.000
89.29000 97.500
89.38000 112.600
89.47000 79.400
89.56000 70.700
89.65000 86.100
89.74000 91.700
89.83000 72.000
89.92000 70.200
90.01000 81.700
90.10000 69.900
90.19000 79.900
90.28000 79.700
90.37000 95.000
90.46000 98.300
90.55000 123.900
90.64000 164.400
90.73000 125.100
90.82000 94.900
90.91000 86.200
91.00000 87.900
91.09000 82.600
91.18000 78.200
91.27000 85.800
91.36000 86.200
91.45000 86.700
91.54000 53.400
91.63000 74.900
91.72000 58.800
91.81000 77.000
91.90000 80.000
91.99000 67.200
92.08000 69.200
92.17000 80.400
92.26000 69.400
92.35000 80.900
92.44000 82.800
92.53000 80.600
92.62000 84.100
92.71000 81.400
92.80000 96.700
92.89000 100.900
92.98000 91.000
93.07000 122.400
93.16000 112.300
93.25000 83.000
93.34000 104.300
93.43000 102.000
93.52000 141.800
93.61000 158.300
93.70000 275.900
93.79000 441.200
93.88000 453.100
93.97000 211.200
94.06000 149.400
94.15000 106.700
94.24000 89.700
94.33000 101.500
94.42000 101.100
94.51000 80.400
94.60000 78.000
94.69000 84.700
94.78000 84.500
94.87000 81.400
94.96000 89.100
95.05000 61.500
95.14000 75.700
95.23000 75.900
95.32000 87.800
95.41000 80.300
95.50000 90.100
95.59000 90.800
95.68000 105.500
95.77000 135.100
95.86000 90.700
95.95000 98.000
96.04000 85.700
96.13000 97.000
96.22000 112.500
96.31000 138.800
96.40000 151.300
96.49000 129.900
96.58000 102.700
96.67000 82.600
96.76000 87.600
96.85000 83.800
96.94000 74.300
97.03000 80.000
97.12000 87.000
97.21000 88.000
97.30000 88.100
97.39000 71.400
97.48000 108.000
97.57000 87.400
97.66000 80.400
97.75000 88.500
97.84000 74.900
97.93000 89.900
98.02000 79.400
98.11000 90.200
98.20000 100.600
98.29000 90.600
98.38000 113.900
98.47000 127.300
98.56000 140.600
98.65000 184.500
98.74000 229.200
98.83000 317.500
98.92000 464.500
99.01000 436.800
99.10000 196.700
99.19000 164.800
99.28000 132.200
99.37000 126.600
99.46000 102.400
99.55000 130.100
99.64000 91.400
99.73000 86.100
99.82000 85.500
99.91000 94.500
100 96.200
100.09 86.600
100.18 90.400
100.27 91.200
100.36 79.500
100.45 111.300
100.54 128.900
100.63 117.400
100.72 141.100
100.81 156.600
100.9 159.300
100.99 147.000
101.08 94.600
101.17 86.700
101.26 112.300
101.35 116.700
101.44 161.200
101.53 183.800
101.62 199.400
101.71 112.200
101.8 90.500
101.89 83.200
101.98 76.800
102.07 101.700
102.16 71.400
102.25 78.700
102.34 81.800
102.43 76.300
102.52 73.200
102.61 69.200
102.7 75.300
102.79 71.600
102.88 103.000
102.97 88.700
103.06 71.600
103.15 84.100
103.24 76.700
103.33 88.300
103.42 77.200
103.51 79.400
103.6 67.200
103.69 84.500
103.78 73.700
103.87 61.300
103.96 71.300
104.05 73.000
104.14 72.500
104.23 71.200
104.32 73.800
104.41 81.900
104.5 86.100
104.59 87.500
104.68 68.900
104.77 72.400
104.86 73.800
104.95 79.200
105.04 81.000
105.13 68.000
105.22 61.200
105.31 74.900
105.4 84.400
105.49 79.000
105.58 73.700
105.67 78.000
105.76 81.500
105.85 96.200
105.94 78.900
106.03 86.600
106.12 92.000
106.21 108.700
106.3 108.800
106.39 115.000
106.48 92.000
106.57 105.900
106.66 116.600
106.75 172.400
106.84 168.900
106.93 136.100
107.02 91.700
107.11 92.200
107.2 104.800
107.29 93.100
107.38 71.700
107.47 67.200
107.56 91.800
107.65 79.600
107.74 84.500
107.83 89.800
107.92 78.700
108.01 87.500
108.1 84.100
108.19 77.000
108.28 73.500
108.37 100.700
108.46 100.600
108.55 113.000
108.64 75.000
108.73 86.000
108.82 103.200
108.91 94.700
109 85.700
109.09 92.600
109.18 128.700
109.27 130.600
109.36 198.800
109.45 248.900
109.54 258.000
109.63 130.800
109.72 87.300
109.81 92.200
109.9 109.700
109.99 81.100
110.08 86.600
110.17 79.700
110.26 82.700
110.35 98.100
110.44 76.100
110.53 89.200
110.62 74.600
110.71 89.500
110.8 74.400
110.89 88.200
110.98 83.400
111.07 80.300
111.16 72.300
111.25 92.400
111.34 93.800
111.43 84.600
111.52 99.300
111.61 99.800
111.7 84.500
111.79 80.900
111.88 79.700
111.97 92.900
112.06 69.700
112.15 81.600
112.24 81.500
112.33 71.000
112.42 61.300
112.51 67.800
112.6 71.800
112.69 59.200
112.78 75.100
112.87 74.900
112.96 67.900
113.05 72.300
113.14 77.900
113.23 68.500
113.32 59.800
113.41 93.600
113.5 79.700
113.59 65.300
113.68 86.900
113.77 69.000
113.86 64.400
113.95 76.200
114.04 80.000
114.13 95.400
114.22 79.100
114.31 83.500
114.4 89.000
114.49 108.200
114.58 99.700
114.67 120.000
114.76 114.000
114.85 136.800
114.94 160.400
115.03 138.700
115.12 116.600
115.21 117.100
115.3 92.500
115.39 96.900
115.48 88.900
115.57 82.100
115.66 68.000
115.75 63.200
115.84 74.400
115.93 74.800
116.02 74.300
116.11 84.700
116.2 62.300
116.29 88.000
116.38 78.700
116.47 92.000
116.56 93.700
116.65 95.400
116.74 98.800
116.83 87.000
116.92 118.400
117.01 102.700
117.1 122.300
117.19 80.700
117.28 103.600
117.37 85.800
117.46 90.100
117.55 105.100
117.64 110.100
117.73 123.600
117.82 132.200
117.91 113.600
118 96.000
118.09 86.000
118.18 90.400
118.27 76.700
118.36 76.500
118.45 79.900
118.54 86.100
118.63 67.000
118.72 83.100
118.81 76.400
118.9 72.400
118.99 55.700
119.08 81.700
119.17 73.400
119.26 67.000
119.35 69.800
119.44 68.400
119.53 84.600
119.62 72.500
119.71 75.100
119.8 75.700
119.89 69.000
119.98 77.500
120.07 77.700
120.16 83.800
120.25 94.100
120.34 84.100
120.43 111.900
120.52 126.500
120.61 151.000
120.7 205.000
120.79 176.800
120.88 137.600
120.97 108.500
121.06 95.700
121.15 90.400
121.24 76.800
121.33 73.800
121.42 86.300
121.51 72.400
121.6 70.900
121.69 73.600
121.78 95.600
121.87 66.000
121.96 76.900
122.05 67.200
122.14 80.500
122.23 73.500
122.32 80.400
122.41 76.200
122.5 84.600
122.59 80.300
122.68 75.100
122.77 96.200
122.86 93.900
122.95 111.500
123.04 116.900
123.13 85.200
123.22 80.300
123.31 98.200
123.4 85.500
123.49 116.800
123.58 125.000
123.67 143.500
123.76 143.200
123.85 134.400
123.94 112.200
124.03 99.400
124.12 94.600
124.21 75.700
124.3 84.900
124.39 77.000
124.48 88.000
124.57 85.200
124.66 57.100
124.75 86.500
124.84 64.400
124.93 76.100
125.02 94.800
125.11 77.300
125.2 84.000
125.29 86.600
125.38 88.900
125.47 85.700
125.56 82.900
125.65 79.100
125.74 86.700
125.83 79.700
125.92 80.600
126.01 78.900
126.1 79.000
126.19 65.800
126.28 79.600
126.37 63.700
126.46 72.200
126.55 78.500
126.64 86.500
126.73 81.600
126.82 90.800
126.91 78.300
127 77.400
127.09 89.000
127.18 87.600
127.27 76.800
127.36 70.700
127.45 76.200
127.54 70.700
127.63 80.700
127.72 93.200
127.81 69.500
127.9 65.000
127.99 78.400
128.08 59.400
128.17 77.400
128.26 68.300
128.35 80.800
128.44 65.900
128.53 72.300
128.62 73.500
128.71 80.300
128.8 71.400
128.89 75.600
128.98 76.200
129.07 84.200
129.16 80.700
129.25 83.200
129.34 85.600
129.43 79.600
129.52 73.500
129.61 73.100
129.7 83.300
129.79 77.600
129.88 92.600
129.97 89.700
130.06 96.100
130.15 88.300
130.24 89.700
130.33 75.300
130.42 60.700
130.51 77.500
130.6 86.300
130.69 85.400
130.78 82.700
130.87 73.200
130.96 88.600
131 66.300