File: Data/Materials_HUB_Synchrotron_XRD/Li67_450_12h_AQ_b5_OYJ_XRD.xy
10.50000 2219.500
10.59000 2215.900
10.68000 2258.200
10.77000 2182.900
10.86000 2143.500
10.95000 2069.000
11.04000 2121.500
11.13000 2065.800
11.22000 1908.900
11.31000 2091.900
11.40000 1952.800
11.49000 1889.900
11.58000 1809.500
11.67000 1809.300
11.76000 1857.300
11.85000 1764.100
11.94000 1719.200
12.03000 1796.400
12.12000 1569.500
12.21000 1580.200
12.30000 1610.700
12.39000 1621.200
12.48000 1587.400
12.57000 1488.900
12.66000 1526.600
12.75000 1509.700
12.84000 1567.400
12.93000 1547.900
13.02000 1416.300
13.11000 1526.600
13.20000 1538.900
13.29000 1411.600
13.38000 1456.200
13.47000 1323.000
13.56000 1488.700
13.65000 1403.100
13.74000 1407.400
13.83000 1396.900
13.92000 1424.100
14.01000 1380.700
14.10000 1389.700
14.19000 1438.700
14.28000 1368.400
14.37000 1398.100
14.46000 1370.800
14.55000 1276.000
14.64000 1335.900
14.73000 1394.900
14.82000 1350.300
14.91000 1503.000
15.00000 1489.200
15.09000 1440.600
15.18000 1395.300
15.27000 1322.200
15.36000 1422.600
15.45000 1405.200
15.54000 1417.700
15.63000 1476.800
15.72000 1399.200
15.81000 1423.900
15.90000 1408.900
15.99000 1475.400
16.08000 1549.000
16.17000 1529.100
16.26000 1523.200
16.35000 1568.500
16.44000 1668.400
16.53000 1572.400
16.62000 1563.100
16.71000 1659.000
16.80000 1667.700
16.89000 1580.200
16.98000 1576.000
17.07000 1769.700
17.16000 4487.800
17.25000 2997.800
17.34000 1852.900
17.43000 1852.300
17.52000 1845.600
17.61000 1836.200
17.70000 1851.300
17.79000 1757.000
17.88000 1751.600
17.97000 1799.600
18.06000 1767.900
18.15000 1949.900
18.24000 1785.300
18.33000 1850.200
18.42000 1961.000
18.51000 1835.100
18.60000 1819.000
18.69000 1856.500
18.78000 1797.900
18.87000 1927.600
18.96000 1890.900
19.05000 1984.200
19.14000 1943.100
19.23000 2015.600
19.32000 1963.100
19.41000 1960.300
19.50000 1849.700
19.59000 1912.900
19.68000 1934.400
19.77000 1862.000
19.86000 1777.600
19.95000 1734.700
20.04000 1742.900
20.13000 1685.800
20.22000 1890.900
20.31000 1843.400
20.40000 1774.300
20.49000 1720.700
20.58000 1647.300
20.67000 1903.500
20.76000 2145.200
20.85000 1723.700
20.94000 1595.800
21.03000 1536.900
21.12000 1559.000
21.21000 1510.700
21.30000 1446.400
21.39000 1428.200
21.48000 1349.500
21.57000 1388.600
21.66000 1448.700
21.75000 1372.300
21.84000 1373.300
21.93000 1283.500
22.02000 1305.400
22.11000 1320.500
22.20000 1202.800
22.29000 1237.000
22.38000 1122.300
22.47000 1235.100
22.56000 1161.700
22.65000 1086.700
22.74000 1114.500
22.83000 1092.800
22.92000 1053.800
23.01000 1054.300
23.10000 1040.300
23.19000 989.700
23.28000 963.100
23.37000 921.800
23.46000 939.100
23.55000 968.700
23.64000 916.000
23.73000 892.300
23.82000 890.900
23.91000 914.600
24.00000 920.700
24.09000 910.200
24.18000 936.800
24.27000 1266.200
24.36000 4342.000
24.45000 13621.400
24.54000 1176.400
24.63000 1001.100
24.72000 880.400
24.81000 827.900
24.90000 782.600
24.99000 806.500
25.08000 725.600
25.17000 752.900
25.26000 741.500
25.35000 734.100
25.44000 739.100
25.53000 761.600
25.62000 1233.800
25.71000 1327.300
25.80000 721.800
25.89000 697.800
25.98000 806.200
26.07000 660.100
26.16000 613.700
26.25000 646.700
26.34000 672.300
26.43000 757.300
26.52000 658.800
26.61000 585.400
26.70000 609.800
26.79000 619.300
26.88000 605.000
26.97000 593.100
27.06000 748.200
27.15000 689.600
27.24000 617.000
27.33000 545.400
27.42000 599.200
27.51000 561.600
27.60000 528.300
27.69000 591.900
27.78000 581.200
27.87000 534.900
27.96000 559.700
28.05000 568.100
28.14000 581.800
28.23000 549.200
28.32000 608.400
28.41000 558.000
28.50000 581.000
28.59000 909.800
28.68000 3372.600
28.77000 3086.500
28.86000 714.400
28.95000 586.600
29.04000 562.100
29.13000 715.700
29.22000 600.200
29.31000 604.500
29.40000 859.700
29.49000 1626.200
29.58000 830.500
29.67000 886.100
29.76000 987.600
29.85000 848.100
29.94000 1442.200
30.03000 6530.800
30.12000 824.200
30.21000 786.700
30.30000 550.300
30.39000 457.100
30.48000 469.800
30.57000 464.300
30.66000 435.900
30.75000 431.900
30.84000 435.800
30.93000 422.200
31.02000 415.200
31.11000 419.000
31.20000 420.100
31.29000 414.800
31.38000 517.900
31.47000 428.200
31.56000 388.000
31.65000 421.400
31.74000 422.600
31.83000 414.000
31.92000 414.800
32.01000 404.900
32.10000 438.400
32.19000 384.200
32.28000 421.500
32.37000 424.700
32.46000 384.600
32.55000 399.000
32.64000 341.400
32.73000 376.800
32.82000 391.100
32.91000 383.600
33.00000 374.400
33.09000 376.300
33.18000 370.200
33.27000 418.800
33.36000 359.700
33.45000 396.400
33.54000 386.200
33.63000 363.400
33.72000 366.800
33.81000 351.900
33.90000 373.100
33.99000 354.800
34.08000 350.600
34.17000 359.400
34.26000 359.700
34.35000 342.400
34.44000 316.300
34.53000 343.500
34.62000 347.100
34.71000 432.900
34.80000 666.900
34.89000 432.300
34.98000 297.500
35.07000 309.600
35.16000 288.200
35.25000 315.400
35.34000 322.500
35.43000 327.600
35.52000 340.500
35.61000 364.800
35.70000 299.900
35.79000 302.400
35.88000 326.300
35.97000 301.700
36.06000 325.900
36.15000 302.800
36.24000 344.500
36.33000 399.500
36.42000 319.800
36.51000 329.000
36.60000 288.600
36.69000 270.500
36.78000 251.800
36.87000 246.700
36.96000 274.200
37.05000 267.300
37.14000 227.600
37.23000 282.000
37.32000 275.400
37.41000 251.100
37.50000 232.000
37.59000 254.100
37.68000 221.000
37.77000 275.000
37.86000 227.200
37.95000 261.400
38.04000 299.600
38.13000 261.300
38.22000 256.200
38.31000 233.500
38.40000 238.700
38.49000 226.000
38.58000 244.100
38.67000 239.500
38.76000 233.200
38.85000 257.900
38.94000 415.600
39.03000 1125.500
39.12000 2807.900
39.21000 358.600
39.30000 236.200
39.39000 266.300
39.48000 249.900
39.57000 231.000
39.66000 228.800
39.75000 269.400
39.84000 218.500
39.93000 197.000
40.02000 206.700
40.11000 181.600
40.20000 172.300
40.29000 191.600
40.38000 182.000
40.47000 190.000
40.56000 181.200
40.65000 184.600
40.74000 187.900
40.83000 193.800
40.92000 167.200
41.01000 179.100
41.10000 191.800
41.19000 192.500
41.28000 166.300
41.37000 210.200
41.46000 157.500
41.55000 204.600
41.64000 190.800
41.73000 180.000
41.82000 176.900
41.91000 189.400
42.00000 188.100
42.09000 230.400
42.18000 339.200
42.27000 236.400
42.36000 208.500
42.45000 322.200
42.54000 564.400
42.63000 424.200
42.72000 279.800
42.81000 428.800
42.90000 1268.700
42.99000 3800.200
43.08000 1019.600
43.17000 310.000
43.26000 240.900
43.35000 196.100
43.44000 191.100
43.53000 176.900
43.62000 147.900
43.71000 170.500
43.80000 161.600
43.89000 173.800
43.98000 150.000
44.07000 138.400
44.16000 138.500
44.25000 150.100
44.34000 148.400
44.43000 151.400
44.52000 158.900
44.61000 148.700
44.70000 163.500
44.79000 138.500
44.88000 184.000
44.97000 311.300
45.06000 206.800
45.15000 166.700
45.24000 174.100
45.33000 141.800
45.42000 147.900
45.51000 183.100
45.60000 280.000
45.69000 867.000
45.78000 2081.700
45.87000 276.600
45.96000 227.500
46.05000 255.200
46.14000 200.000
46.23000 172.000
46.32000 162.300
46.41000 164.800
46.50000 148.400
46.59000 151.900
46.68000 135.300
46.77000 126.400
46.86000 171.800
46.95000 152.900
47.04000 151.600
47.13000 137.200
47.22000 122.700
47.31000 166.500
47.40000 225.900
47.49000 319.000
47.58000 182.600
47.67000 146.200
47.76000 133.300
47.85000 118.400
47.94000 130.700
48.03000 120.800
48.12000 146.100
48.21000 133.500
48.30000 119.600
48.39000 146.100
48.48000 143.200
48.57000 128.900
48.66000 135.600
48.75000 134.300
48.84000 112.300
48.93000 132.900
49.02000 122.800
49.11000 133.600
49.20000 154.400
49.29000 126.100
49.38000 121.000
49.47000 124.400
49.56000 170.800
49.65000 142.400
49.74000 171.200
49.83000 282.100
49.92000 637.000
50.01000 1764.200
50.10000 3894.800
50.19000 519.100
50.28000 396.600
50.37000 489.000
50.46000 281.600
50.55000 191.200
50.64000 148.600
50.73000 159.600
50.82000 138.500
50.91000 154.300
51.00000 146.300
51.09000 130.000
51.18000 114.700
51.27000 136.900
51.36000 126.900
51.45000 127.500
51.54000 134.200
51.63000 123.900
51.72000 129.300
51.81000 120.800
51.90000 139.200
51.99000 136.000
52.08000 143.100
52.17000 176.800
52.26000 215.600
52.35000 287.300
52.44000 215.900
52.53000 185.400
52.62000 150.900
52.71000 246.300
52.80000 287.500
52.89000 171.200
52.98000 145.200
53.07000 157.100
53.16000 270.500
53.25000 574.700
53.34000 1372.800
53.43000 360.600
53.52000 181.300
53.61000 127.700
53.70000 119.000
53.79000 125.900
53.88000 106.500
53.97000 139.100
54.06000 124.800
54.15000 126.500
54.24000 121.200
54.33000 130.500
54.42000 107.800
54.51000 118.600
54.60000 104.200
54.69000 129.500
54.78000 145.100
54.87000 120.400
54.96000 123.200
55.05000 101.000
55.14000 106.700
55.23000 125.800
55.32000 111.900
55.41000 141.300
55.50000 146.400
55.59000 145.600
55.68000 135.800
55.77000 146.400
55.86000 127.900
55.95000 124.900
56.04000 117.400
56.13000 171.400
56.22000 220.500
56.31000 353.600
56.40000 801.100
56.49000 1610.800
56.58000 361.500
56.67000 141.200
56.76000 141.100
56.85000 125.200
56.94000 127.800
57.03000 117.300
57.12000 114.200
57.21000 111.400
57.30000 104.800
57.39000 121.200
57.48000 103.800
57.57000 121.300
57.66000 98.100
57.75000 110.500
57.84000 106.100
57.93000 106.900
58.02000 105.700
58.11000 116.700
58.20000 94.400
58.29000 122.900
58.38000 124.900
58.47000 118.300
58.56000 155.800
58.65000 218.300
58.74000 432.500
58.83000 261.500
58.92000 140.900
59.01000 116.900
59.10000 126.600
59.19000 138.900
59.28000 226.300
59.37000 399.100
59.46000 804.400
59.55000 885.700
59.64000 198.000
59.73000 136.000
59.82000 140.800
59.91000 114.400
60.00000 125.800
60.09000 118.300
60.18000 95.300
60.27000 106.400
60.36000 92.600
60.45000 114.000
60.54000 90.000
60.63000 118.000
60.72000 115.900
60.81000 122.700
60.90000 136.800
60.99000 111.500
61.08000 132.700
61.17000 160.700
61.26000 132.300
61.35000 128.900
61.44000 115.700
61.53000 114.100
61.62000 129.000
61.71000 160.400
61.80000 140.500
61.89000 118.500
61.98000 115.500
62.07000 113.300
62.16000 121.200
62.25000 113.000
62.34000 139.500
62.43000 157.100
62.52000 136.400
62.61000 104.200
62.70000 120.200
62.79000 107.600
62.88000 131.000
62.97000 97.500
63.06000 126.600
63.15000 93.700
63.24000 104.700
63.33000 113.200
63.42000 92.600
63.51000 120.400
63.60000 93.500
63.69000 126.500
63.78000 94.200
63.87000 106.600
63.96000 93.700
64.05000 89.200
64.14000 106.700
64.23000 109.800
64.32000 112.700
64.41000 105.700
64.50000 110.200
64.59000 127.100
64.68000 88.400
64.77000 128.400
64.86000 127.700
64.95000 111.000
65.04000 130.000
65.13000 227.000
65.22000 354.600
65.31000 617.100
65.40000 252.900
65.49000 183.700
65.58000 135.600
65.67000 107.900
65.76000 114.500
65.85000 127.200
65.94000 105.600
66.03000 112.700
66.12000 117.300
66.21000 114.000
66.30000 102.500
66.39000 127.400
66.48000 115.100
66.57000 105.900
66.66000 105.000
66.75000 118.400
66.84000 125.600
66.93000 118.500
67.02000 109.800
67.11000 114.200
67.20000 120.800
67.29000 120.400
67.38000 128.800
67.47000 120.800
67.56000 126.800
67.65000 138.400
67.74000 187.400
67.83000 286.100
67.92000 518.500
68.01000 954.900
68.10000 1512.800
68.19000 451.700
68.28000 222.800
68.37000 142.800
68.46000 141.400
68.55000 134.300
68.64000 107.700
68.73000 119.800
68.82000 120.600
68.91000 120.900
69.00000 123.200
69.09000 130.700
69.18000 125.500
69.27000 164.900
69.36000 194.100
69.45000 140.800
69.54000 114.300
69.63000 120.800
69.72000 134.700
69.81000 163.200
69.90000 186.300
69.99000 290.400
70.08000 448.100
70.17000 658.200
70.26000 236.900
70.35000 156.700
70.44000 118.100
70.53000 120.500
70.62000 118.200
70.71000 133.300
70.80000 105.600
70.89000 101.700
70.98000 114.900
71.07000 110.000
71.16000 118.200
71.25000 90.600
71.34000 107.500
71.43000 96.600
71.52000 108.200
71.61000 96.600
71.70000 97.200
71.79000 105.300
71.88000 103.200
71.97000 103.500
72.06000 111.600
72.15000 126.300
72.24000 184.800
72.33000 145.200
72.42000 101.800
72.51000 122.800
72.60000 102.600
72.69000 102.400
72.78000 117.700
72.87000 143.300
72.96000 110.300
73.05000 141.400
73.14000 134.900
73.23000 175.000
73.32000 194.200
73.41000 225.600
73.50000 394.300
73.59000 322.200
73.68000 161.700
73.77000 135.900
73.86000 109.000
73.95000 109.300
74.04000 101.000
74.13000 119.300
74.22000 99.700
74.31000 104.400
74.40000 140.200
74.49000 124.300
74.58000 115.700
74.67000 122.200
74.76000 101.500
74.85000 118.400
74.94000 119.200
75.03000 116.600
75.12000 111.400
75.21000 119.200
75.30000 95.900
75.39000 100.100
75.48000 95.600
75.57000 122.600
75.66000 128.900
75.75000 108.700
75.84000 120.400
75.93000 158.500
76.02000 228.000
76.11000 306.900
76.20000 395.700
76.29000 199.600
76.38000 111.100
76.47000 121.200
76.56000 124.200
76.65000 107.900
76.74000 106.000
76.83000 96.600
76.92000 98.100
77.01000 112.200
77.10000 103.100
77.19000 118.700
77.28000 121.800
77.37000 101.900
77.46000 114.300
77.55000 107.800
77.64000 115.100
77.73000 141.600
77.82000 156.200
77.91000 182.100
78.00000 142.100
78.09000 114.700
78.18000 140.300
78.27000 127.700
78.36000 124.900
78.45000 149.500
78.54000 212.400
78.63000 279.400
78.72000 408.000
78.81000 649.400
78.90000 364.200
78.99000 160.200
79.08000 134.800
79.17000 113.700
79.26000 125.400
79.35000 104.600
79.44000 118.500
79.53000 108.900
79.62000 117.300
79.71000 90.800
79.80000 103.600
79.89000 109.200
79.98000 100.700
80.07000 117.100
80.16000 107.200
80.25000 133.200
80.34000 112.200
80.43000 142.600
80.52000 127.200
80.61000 198.000
80.70000 250.500
80.79000 311.200
80.88000 184.000
80.97000 144.600
81.06000 164.000
81.15000 166.900
81.24000 217.200
81.33000 277.000
81.42000 365.200
81.51000 236.900
81.60000 122.500
81.69000 91.400
81.78000 98.200
81.87000 113.100
81.96000 106.300
82.05000 113.100
82.14000 96.100
82.23000 98.500
82.32000 95.700
82.41000 90.900
82.50000 104.000
82.59000 108.100
82.68000 100.000
82.77000 106.300
82.86000 101.500
82.95000 128.500
83.04000 222.300
83.13000 122.000
83.22000 110.200
83.31000 92.500
83.40000 118.700
83.49000 142.200
83.58000 151.800
83.67000 160.900
83.76000 131.500
83.85000 137.900
83.94000 141.200
84.03000 154.500
84.12000 143.200
84.21000 104.500
84.30000 130.000
84.39000 102.900
84.48000 115.600
84.57000 137.200
84.66000 143.700
84.75000 141.600
84.84000 105.300
84.93000 98.300
85.02000 118.500
85.11000 105.600
85.20000 110.000
85.29000 123.200
85.38000 94.300
85.47000 100.000
85.56000 99.600
85.65000 108.900
85.74000 110.200
85.83000 133.700
85.92000 87.800
86.01000 102.800
86.10000 122.600
86.19000 118.200
86.28000 136.000
86.37000 172.700
86.46000 191.400
86.55000 247.900
86.64000 227.000
86.73000 129.400
86.82000 107.500
86.91000 125.200
87.00000 90.800
87.09000 112.000
87.18000 104.800
87.27000 96.900
87.36000 71.800
87.45000 103.300
87.54000 101.700
87.63000 97.400
87.72000 86.700
87.81000 83.400
87.90000 84.700
87.99000 102.600
88.08000 106.100
88.17000 88.800
88.26000 101.500
88.35000 109.600
88.44000 110.000
88.53000 102.800
88.62000 106.800
88.71000 102.300
88.80000 132.100
88.89000 155.200
88.98000 189.000
89.07000 234.400
89.16000 280.200
89.25000 191.700
89.34000 194.300
89.43000 105.000
89.52000 93.900
89.61000 128.400
89.70000 115.300
89.79000 108.500
89.88000 111.400
89.97000 120.200
90.06000 92.900
90.15000 96.000
90.24000 105.500
90.33000 116.900
90.42000 80.500
90.51000 101.000
90.60000 99.900
90.69000 115.700
90.78000 114.400
90.87000 112.900
90.96000 157.300
91.05000 190.000
91.14000 197.700
91.23000 136.200
91.32000 112.100
91.41000 102.700
91.50000 107.000
91.59000 105.700
91.68000 119.700
91.77000 101.600
91.86000 94.800
91.95000 114.400
92.04000 105.000
92.13000 93.100
92.22000 95.400
92.31000 87.900
92.40000 100.400
92.49000 100.800
92.58000 90.300
92.67000 104.000
92.76000 104.200
92.85000 125.000
92.94000 109.300
93.03000 121.700
93.12000 105.700
93.21000 111.300
93.30000 103.800
93.39000 99.700
93.48000 92.100
93.57000 118.800
93.66000 129.800
93.75000 122.200
93.84000 145.700
93.93000 191.200
94.02000 197.100
94.11000 299.000
94.20000 417.500
94.29000 473.300
94.38000 340.600
94.47000 177.600
94.56000 130.600
94.65000 127.800
94.74000 111.000
94.83000 119.200
94.92000 118.800
95.01000 110.700
95.10000 125.300
95.19000 103.600
95.28000 128.100
95.37000 86.900
95.46000 113.800
95.55000 99.800
95.64000 128.900
95.73000 133.800
95.82000 123.000
95.91000 124.600
96.00000 126.500
96.09000 112.400
96.18000 102.200
96.27000 123.100
96.36000 107.100
96.45000 120.000
96.54000 90.900
96.63000 133.900
96.72000 135.000
96.81000 151.000
96.90000 181.600
96.99000 156.300
97.08000 107.800
97.17000 97.700
97.26000 113.200
97.35000 93.700
97.44000 92.300
97.53000 104.500
97.62000 102.700
97.71000 101.300
97.80000 101.700
97.89000 115.200
97.98000 93.100
98.07000 104.200
98.16000 107.800
98.25000 114.800
98.34000 89.800
98.43000 137.700
98.52000 128.000
98.61000 145.600
98.70000 151.900
98.79000 162.600
98.88000 181.100
98.97000 162.600
99.06000 191.500
99.15000 175.500
99.24000 228.000
99.33000 314.300
99.42000 398.000
99.51000 443.300
99.60000 257.400
99.69000 142.400
99.78000 140.600
99.87000 150.800
99.96000 110.800
100.05 129.300
100.14 121.300
100.23 106.000
100.32 119.700
100.41 94.000
100.5 137.700
100.59 148.900
100.68 138.100
100.77 125.300
100.86 102.600
100.95 109.900
101.04 126.400
101.13 123.600
101.22 155.100
101.31 163.900
101.4 199.600
101.49 197.400
101.58 160.100
101.67 120.800
101.76 141.300
101.85 163.400
101.94 190.100
102.03 199.100
102.12 221.900
102.21 161.600
102.3 98.600
102.39 103.300
102.48 101.200
102.57 94.800
102.66 102.500
102.75 84.900
102.84 99.900
102.93 118.300
103.02 117.700
103.11 96.300
103.2 123.400
103.29 97.900
103.38 106.300
103.47 112.200
103.56 96.500
103.65 87.300
103.74 112.100
103.83 98.200
103.92 102.800
104.01 98.500
104.1 91.400
104.19 102.000
104.28 94.800
104.37 107.200
104.46 95.000
104.55 103.200
104.64 99.600
104.73 82.400
104.82 90.000
104.91 99.700
105 103.600
105.09 94.600
105.18 95.000
105.27 116.600
105.36 112.200
105.45 89.200
105.54 121.300
105.63 96.600
105.72 101.700
105.81 105.000
105.9 105.700
105.99 105.800
106.08 110.600
106.17 99.200
106.26 107.200
106.35 168.200
106.44 104.500
106.53 109.100
106.62 116.200
106.71 100.000
106.8 120.700
106.89 120.700
106.98 100.900
107.07 144.600
107.16 163.300
107.25 156.900
107.34 177.800
107.43 212.200
107.52 145.800
107.61 97.700
107.7 111.100
107.79 100.800
107.88 118.700
107.97 107.900
108.06 99.800
108.15 106.100
108.24 98.000
108.33 102.300
108.42 118.400
108.51 120.800
108.6 108.300
108.69 92.700
108.78 119.700
108.87 104.000
108.96 90.200
109.05 93.600
109.14 117.100
109.23 98.100
109.32 81.500
109.41 100.500
109.5 99.500
109.59 114.600
109.68 147.900
109.77 138.500
109.86 141.100
109.95 188.300
110.04 217.600
110.13 250.000
110.22 186.500
110.31 136.200
110.4 91.400
110.49 93.500
110.58 120.700
110.67 93.400
110.76 104.300
110.85 103.100
110.94 99.600
111.03 107.300
111.12 110.400
111.21 101.100
111.3 96.400
111.39 111.500
111.48 108.300
111.57 108.200
111.66 112.200
111.75 95.300
111.84 115.400
111.93 97.200
112.02 94.500
112.11 122.600
112.2 143.300
112.29 106.500
112.38 113.500
112.47 100.500
112.56 102.900
112.65 104.200
112.74 90.100
112.83 97.000
112.92 109.600
113.01 96.000
113.1 100.100
113.19 101.200
113.28 94.500
113.37 105.100
113.46 94.900
113.55 93.400
113.64 83.500
113.73 96.600
113.82 87.100
113.91 103.800
114 92.200
114.09 107.100
114.18 93.300
114.27 118.500
114.36 99.900
114.45 109.400
114.54 127.400
114.63 123.500
114.72 110.600
114.81 113.600
114.9 122.800
114.99 110.100
115.08 109.100
115.17 108.100
115.26 127.900
115.35 138.500
115.44 132.800
115.53 156.500
115.62 176.100
115.71 175.300
115.8 154.800
115.89 107.800
115.98 93.200
116.07 123.700
116.16 90.600
116.25 87.800
116.34 122.300
116.43 95.000
116.52 112.400
116.61 98.000
116.7 120.600
116.79 97.200
116.88 93.600
116.97 100.300
117.06 106.000
117.15 94.900
117.24 94.100
117.33 93.100
117.42 102.600
117.51 100.200
117.6 129.900
117.69 153.000
117.78 110.000
117.87 105.900
117.96 115.200
118.05 95.100
118.14 99.000
118.23 117.300
118.32 130.100
118.41 144.600
118.5 134.000
118.59 151.400
118.68 121.800
118.77 112.500
118.86 96.600
118.95 78.000
119.04 86.700
119.13 91.600
119.22 95.100
119.31 101.100
119.4 115.900
119.49 88.800
119.58 89.500
119.67 100.000
119.76 96.300
119.85 92.500
119.94 99.100
120.03 92.100
120.12 104.700
120.21 105.100
120.3 92.800
120.39 101.600
120.48 102.200
120.57 99.900
120.66 87.600
120.75 114.600
120.84 126.400
120.93 103.400
121.02 124.700
121.11 126.900
121.2 148.600
121.29 159.100
121.38 177.100
121.47 181.400
121.56 176.900
121.65 161.500
121.74 136.200
121.83 104.100
121.92 110.500
122.01 85.000
122.1 111.800
122.19 93.200
122.28 100.800
122.37 111.900
122.46 113.000
122.55 97.800
122.64 105.100
122.73 82.700
122.82 88.000
122.91 111.000
123 108.300
123.09 103.300
123.18 75.600
123.27 102.800
123.36 101.900
123.45 114.600
123.54 120.100
123.63 115.700
123.72 147.900
123.81 128.400
123.9 131.800
123.99 137.300
124.08 107.000
124.17 124.000
124.26 124.800
124.35 129.900
124.44 161.400
124.53 162.800
124.62 137.100
124.71 155.100
124.8 109.600
124.89 83.400
124.98 102.800
125.07 122.700
125.16 103.500
125.25 107.900
125.34 91.200
125.43 87.900
125.52 92.000
125.61 113.500
125.7 105.600
125.79 101.400
125.88 91.400
125.97 113.000
126.06 86.200
126.15 113.900
126.24 103.300
126.33 97.600
126.42 94.400
126.51 97.000
126.6 84.600
126.69 89.700
126.78 112.200
126.87 85.400
126.96 98.100
127.05 133.400
127.14 92.300
127.23 83.400
127.32 84.800
127.41 116.800
127.5 111.100
127.59 106.800
127.68 104.900
127.77 102.900
127.86 109.000
127.95 102.700
128.04 98.600
128.13 108.900
128.22 96.300
128.31 89.000
128.4 106.900
128.49 110.500
128.58 88.800
128.67 99.600
128.76 92.900
128.85 111.200
128.94 84.600
129.03 112.000
129.12 87.400
129.21 103.300
129.3 92.500
129.39 103.900
129.48 92.300
129.57 87.200
129.66 108.400
129.75 77.700
129.84 92.000
129.93 74.500
130.02 101.300
130.11 101.400
130.2 104.800
130.29 103.500
130.38 100.900
130.47 92.300
130.56 100.700
130.65 117.600
130.74 103.000
130.83 103.900
130.92 116.400
131 110.500