File: Data/Materials_HUB_Synchrotron_XRD/MQ135_XRD.xy
10.00000 2708.900
10.10000 2635.400
10.20000 2863.400
10.30000 2395.900
10.40000 2543.600
10.50000 2413.700
10.60000 2445.200
10.70000 2360.300
10.80000 2249.300
10.90000 2161.200
11.00000 2265.400
11.10000 2099.800
11.20000 2075.500
11.30000 1958.300
11.40000 1973.100
11.50000 1879.600
11.60000 1904.400
11.70000 1825.400
11.80000 1995.300
11.90000 1717.200
12.00000 1788.000
12.10000 1733.700
12.20000 1664.900
12.30000 1605.100
12.40000 1592.800
12.50000 1724.600
12.60000 1615.700
12.70000 1609.000
12.80000 1679.800
12.90000 1954.200
13.00000 1613.700
13.10000 1498.900
13.20000 1542.700
13.30000 1508.400
13.40000 1600.400
13.50000 1417.900
13.60000 1501.800
13.70000 1505.100
13.80000 1452.900
13.90000 1536.100
14.00000 1434.800
14.10000 1507.200
14.20000 1382.700
14.30000 1485.400
14.40000 1540.400
14.50000 1454.200
14.60000 1422.200
14.70000 1869.800
14.80000 1462.900
14.90000 1497.300
15.00000 1553.300
15.10000 1347.800
15.20000 1507.100
15.30000 1461.200
15.40000 1854.000
15.50000 1590.600
15.60000 1846.600
15.70000 1551.500
15.80000 1508.800
15.90000 1538.200
16.00000 1552.100
16.10000 1470.500
16.20000 1638.500
16.30000 1611.500
16.40000 1722.400
16.50000 1608.800
16.60000 1581.200
16.70000 1716.300
16.80000 1726.500
16.90000 1882.000
17.00000 1698.600
17.10000 1804.000
17.20000 1759.900
17.30000 1860.500
17.40000 1867.700
17.50000 1815.300
17.60000 1922.800
17.70000 2077.700
17.80000 4135.100
17.90000 2098.600
18.00000 1918.200
18.10000 2140.600
18.20000 2897.800
18.30000 2042.200
18.40000 1970.900
18.50000 2147.700
18.60000 3311.100
18.70000 2412.700
18.80000 2823.300
18.90000 2099.200
19.00000 2019.900
19.10000 1982.900
19.20000 1925.900
19.30000 1949.300
19.40000 2054.800
19.50000 1996.800
19.60000 2071.100
19.70000 2323.300
19.80000 2237.600
19.90000 2676.200
20.00000 2080.500
20.10000 1858.000
20.20000 1867.600
20.30000 1844.000
20.40000 1738.700
20.50000 1729.600
20.60000 1740.100
20.70000 1680.500
20.80000 1687.700
20.90000 1616.900
21.00000 1585.800
21.10000 1529.800
21.20000 1494.600
21.30000 1489.300
21.40000 1490.300
21.50000 1418.200
21.60000 1449.400
21.70000 1419.800
21.80000 1469.900
21.90000 2854.900
22.00000 1450.900
22.10000 1291.400
22.20000 1192.900
22.30000 1207.200
22.40000 1090.800
22.50000 1167.300
22.60000 1133.600
22.70000 1097.700
22.80000 1101.800
22.90000 1142.100
23.00000 1081.100
23.10000 1042.700
23.20000 1005.500
23.30000 1140.700
23.40000 1095.200
23.50000 1098.100
23.60000 1053.600
23.70000 1237.700
23.80000 2053.700
23.90000 1848.600
24.00000 1211.700
24.10000 1050.100
24.20000 1071.500
24.30000 977.400
24.40000 977.700
24.50000 844.000
24.60000 860.700
24.70000 756.300
24.80000 796.500
24.90000 793.700
25.00000 755.800
25.10000 724.100
25.20000 760.800
25.30000 744.300
25.40000 757.100
25.50000 816.700
25.60000 928.500
25.70000 823.200
25.80000 736.900
25.90000 871.100
26.00000 1388.500
26.10000 962.500
26.20000 708.700
26.30000 673.500
26.40000 665.700
26.50000 591.000
26.60000 629.400
26.70000 654.900
26.80000 754.800
26.90000 666.900
27.00000 743.100
27.10000 776.400
27.20000 842.500
27.30000 719.000
27.40000 787.400
27.50000 618.500
27.60000 576.100
27.70000 608.100
27.80000 585.000
27.90000 553.100
28.00000 563.900
28.10000 519.000
28.20000 562.000
28.30000 554.200
28.40000 579.400
28.50000 516.100
28.60000 515.500
28.70000 523.400
28.80000 512.500
28.90000 501.800
29.00000 546.400
29.10000 517.500
29.20000 596.100
29.30000 636.100
29.40000 608.900
29.50000 764.800
29.60000 857.700
29.70000 1572.000
29.80000 3620.900
29.90000 1407.000
30.00000 2865.700
30.10000 1891.600
30.20000 898.000
30.30000 678.200
30.40000 740.400
30.50000 688.700
30.60000 627.000
30.70000 578.500
30.80000 574.200
30.90000 621.900
31.00000 861.300
31.10000 1016.500
31.20000 1558.100
31.30000 1029.300
31.40000 692.100
31.50000 616.600
31.60000 515.500
31.70000 486.500
31.80000 483.400
31.90000 539.700
32.00000 726.300
32.10000 634.600
32.20000 818.200
32.30000 1004.800
32.40000 810.800
32.50000 731.000
32.60000 703.000
32.70000 558.800
32.80000 584.000
32.90000 555.700
33.00000 553.800
33.10000 600.200
33.20000 602.100
33.30000 485.200
33.40000 472.600
33.50000 453.400
33.60000 421.600
33.70000 464.300
33.80000 508.800
33.90000 445.700
34.00000 428.900
34.10000 413.400
34.20000 387.200
34.30000 381.600
34.40000 424.200
34.50000 390.900
34.60000 371.800
34.70000 387.600
34.80000 409.600
34.90000 429.900
35.00000 514.500
35.10000 428.300
35.20000 419.800
35.30000 433.300
35.40000 407.700
35.50000 407.400
35.60000 382.000
35.70000 381.200
35.80000 414.400
35.90000 352.800
36.00000 408.900
36.10000 394.800
36.20000 384.200
36.30000 369.800
36.40000 349.500
36.50000 364.600
36.60000 430.600
36.70000 522.300
36.80000 515.100
36.90000 402.000
37.00000 387.000
37.10000 351.900
37.20000 350.800
37.30000 396.200
37.40000 397.500
37.50000 416.800
37.60000 340.900
37.70000 443.500
37.80000 370.300
37.90000 313.800
38.00000 362.600
38.10000 353.200
38.20000 367.400
38.30000 337.300
38.40000 308.300
38.50000 334.000
38.60000 338.600
38.70000 262.100
38.80000 255.500
38.90000 273.300
39.00000 349.000
39.10000 268.700
39.20000 256.900
39.30000 265.700
39.40000 312.600
39.50000 353.000
39.60000 491.200
39.70000 452.700
39.80000 328.300
39.90000 289.500
40.00000 358.700
40.10000 264.200
40.20000 250.200
40.30000 256.200
40.40000 234.900
40.50000 240.100
40.60000 273.300
40.70000 215.800
40.80000 232.400
40.90000 254.600
41.00000 220.700
41.10000 197.000
41.20000 255.000
41.30000 240.800
41.40000 261.400
41.50000 202.200
41.60000 215.700
41.70000 202.200
41.80000 228.100
41.90000 210.400
42.00000 279.400
42.10000 233.900
42.20000 188.400
42.30000 226.900
42.40000 210.900
42.50000 174.400
42.60000 173.200
42.70000 180.500
42.80000 198.900
42.90000 255.000
43.00000 234.000
43.10000 221.400
43.20000 274.200
43.30000 439.300
43.40000 492.600
43.50000 295.500
43.60000 217.200
43.70000 250.000
43.80000 281.900
43.90000 276.700
44.00000 285.600
44.10000 280.900
44.20000 232.800
44.30000 200.600
44.40000 229.400
44.50000 180.700
44.60000 205.000
44.70000 264.900
44.80000 250.400
44.90000 180.400
45.00000 189.500
45.10000 180.000
45.20000 178.100
45.30000 215.600
45.40000 220.500
45.50000 369.900
45.60000 270.400
45.70000 189.300
45.80000 187.900
45.90000 183.900
46.00000 177.400
46.10000 190.700
46.20000 181.500
46.30000 155.000
46.40000 159.200
46.50000 147.800
46.60000 135.700
46.70000 152.800
46.80000 127.800
46.90000 161.500
47.00000 203.300
47.10000 198.500
47.20000 213.100
47.30000 149.000
47.40000 156.400
47.50000 169.100
47.60000 163.900
47.70000 147.800
47.80000 148.300
47.90000 154.100
48.00000 179.000
48.10000 203.000
48.20000 284.100
48.30000 302.000
48.40000 225.800
48.50000 250.900
48.60000 296.800
48.70000 407.700
48.80000 436.900
48.90000 305.600
49.00000 255.300
49.10000 219.600
49.20000 253.200
49.30000 279.600
49.40000 231.200
49.50000 204.100
49.60000 193.900
49.70000 201.200
49.80000 237.500
49.90000 287.400
50.00000 229.000
50.10000 209.800
50.20000 176.500
50.30000 165.000
50.40000 137.500
50.50000 182.500
50.60000 172.600
50.70000 182.700
50.80000 212.600
50.90000 231.600
51.00000 230.300
51.10000 194.100
51.20000 218.600
51.30000 215.600
51.40000 243.200
51.50000 229.800
51.60000 236.700
51.70000 251.200
51.80000 258.700
51.90000 279.300
52.00000 308.000
52.10000 289.200
52.20000 288.700
52.30000 266.900
52.40000 247.600
52.50000 241.600
52.60000 222.700
52.70000 210.500
52.80000 189.200
52.90000 198.300
53.00000 216.800
53.10000 197.300
53.20000 224.200
53.30000 331.100
53.40000 302.200
53.50000 276.000
53.60000 312.200
53.70000 324.600
53.80000 377.200
53.90000 293.100
54.00000 400.100
54.10000 527.500
54.20000 462.700
54.30000 299.200
54.40000 291.400
54.50000 273.700
54.60000 248.500
54.70000 222.800
54.80000 196.800
54.90000 191.700
55.00000 196.800
55.10000 183.400
55.20000 182.500
55.30000 168.900
55.40000 167.300
55.50000 177.800
55.60000 160.900
55.70000 186.400
55.80000 151.300
55.90000 156.900
56.00000 173.400
56.10000 183.100
56.20000 183.500
56.30000 219.200
56.40000 202.500
56.50000 161.500
56.60000 162.200
56.70000 192.100
56.80000 192.200
56.90000 244.200
57.00000 239.200
57.10000 229.200
57.20000 174.900
57.30000 164.400
57.40000 146.900
57.50000 155.800
57.60000 155.300
57.70000 158.200
57.80000 155.900
57.90000 192.000
58.00000 178.200
58.10000 174.100
58.20000 146.800
58.30000 160.400
58.40000 193.600
58.50000 185.300
58.60000 213.100
58.70000 224.100
58.80000 160.300
58.90000 191.300
59.00000 183.800
59.10000 205.400
59.20000 231.500
59.30000 261.800
59.40000 271.300
59.50000 251.600
59.60000 241.900
59.70000 282.600
59.80000 264.300
59.90000 241.400
60.00000 220.600
60.10000 210.700
60.20000 219.200
60.30000 235.400
60.40000 178.000
60.50000 175.200
60.60000 193.500
60.70000 165.400
60.80000 201.000
60.90000 215.500
61.00000 197.000
61.10000 182.100
61.20000 151.500
61.30000 150.300
61.40000 170.200
61.50000 120.200
61.60000 152.800
61.70000 179.900
61.80000 186.200
61.90000 204.600
62.00000 194.700
62.10000 169.200
62.20000 162.400
62.30000 184.600
62.40000 180.900
62.50000 198.900
62.60000 199.700
62.70000 168.000
62.80000 226.500
62.90000 204.800
63.00000 194.800
63.10000 148.400
63.20000 173.800
63.30000 166.700
63.40000 166.500
63.50000 196.700
63.60000 211.400
63.70000 198.900
63.80000 211.500
63.90000 225.000
64.00000 196.500
64.10000 227.000
64.20000 206.900
64.30000 177.900
64.40000 185.200
64.50000 156.500
64.60000 164.300
64.70000 169.100
64.80000 149.000
64.90000 158.200
65.00000 200.000
65.10000 171.200
65.20000 191.800
65.30000 200.000
65.40000 201.700
65.50000 195.900
65.60000 166.000
65.70000 153.400
65.80000 161.900
65.90000 136.100
66.00000 140.100
66.10000 143.200
66.20000 152.600
66.30000 150.900
66.40000 144.000
66.50000 154.000
66.60000 113.200
66.70000 135.700
66.80000 128.200
66.90000 137.400
67.00000 111.200
67.10000 148.900
67.20000 109.400
67.30000 134.200
67.40000 126.800
67.50000 133.700
67.60000 146.000
67.70000 137.700
67.80000 111.600
67.90000 144.400
68.00000 131.900
68.10000 134.900
68.20000 150.000
68.30000 161.800
68.40000 145.600
68.50000 140.800
68.60000 148.700
68.70000 159.700
68.80000 157.300
68.90000 152.100
69.00000 158.000
69.10000 167.900
69.20000 162.400
69.30000 144.900
69.40000 130.800
69.50000 149.700
69.60000 131.800
69.70000 148.500
69.80000 128.800
69.90000 133.500
70.00000 114.000
70.10000 96.500
70.20000 116.900
70.30000 131.000
70.40000 114.800
70.50000 113.600
70.60000 114.300
70.70000 137.500
70.80000 123.700
70.90000 125.900
71.00000 118.800
71.10000 135.400
71.20000 124.400
71.30000 135.600
71.40000 126.200
71.50000 126.900
71.60000 130.000
71.70000 108.500
71.80000 128.800
71.90000 113.600
72.00000 137.800
72.10000 112.400
72.20000 121.000
72.30000 110.900
72.40000 104.800
72.50000 100.300
72.60000 95.200
72.70000 111.800
72.80000 102.900
72.90000 108.100
73.00000 95.100
73.10000 116.500
73.20000 117.000
73.30000 102.000
73.40000 124.700
73.50000 117.300
73.60000 99.800
73.70000 135.500
73.80000 135.600
73.90000 140.300
74.00000 137.300
74.10000 129.400
74.20000 131.100
74.30000 105.000
74.40000 120.400
74.50000 128.100
74.60000 114.800
74.70000 147.300
74.80000 144.100
74.90000 142.600
75.00000 149.300
75.10000 145.000
75.20000 125.200
75.30000 128.100
75.40000 108.900
75.50000 125.100
75.60000 126.700
75.70000 92.300
75.80000 117.700
75.90000 97.400
76.00000 113.700
76.10000 105.500
76.20000 95.700
76.30000 110.200
76.40000 118.100
76.50000 115.800
76.60000 120.400
76.70000 110.100
76.80000 112.900
76.90000 114.900
77.00000 112.500
77.10000 107.300
77.20000 102.200
77.30000 112.900
77.40000 98.100
77.50000 109.700
77.60000 116.200
77.70000 102.500
77.80000 113.100
77.90000 113.200
78.00000 98.100
78.10000 112.400
78.20000 110.400
78.30000 118.300
78.40000 126.700
78.50000 108.200
78.60000 122.700
78.70000 129.200
78.80000 114.500
78.90000 120.700
79.00000 115.300
79.10000 115.000
79.20000 119.400
79.30000 123.700
79.40000 116.200
79.50000 136.000
79.60000 142.000
79.70000 152.700
79.80000 128.800
79.90000 132.900
80.00000 121.300
80.10000 102.300
80.20000 120.200
80.30000 105.500
80.40000 112.400
80.50000 114.300
80.60000 101.400
80.70000 120.800
80.80000 103.700
80.90000 116.700
81.00000 118.900
81.10000 117.100
81.20000 110.100
81.30000 120.100
81.40000 118.100
81.50000 101.700
81.60000 104.100
81.70000 112.100
81.80000 108.700
81.90000 95.700
82.00000 113.300
82.10000 103.200
82.20000 101.800
82.30000 102.400
82.40000 101.900
82.50000 99.000
82.60000 102.400
82.70000 119.300
82.80000 102.900
82.90000 94.600
83.00000 98.800
83.10000 91.800
83.20000 90.800
83.30000 101.500
83.40000 105.400
83.50000 112.700
83.60000 124.100
83.70000 96.100
83.80000 112.500
83.90000 94.300
84.00000 105.300
84.10000 102.000
84.20000 100.500
84.30000 88.700
84.40000 125.800
84.50000 110.200
84.60000 99.200
84.70000 112.000
84.80000 118.900
84.90000 103.000
85.00000 106.100
85.10000 100.400
85.20000 110.400
85.30000 137.100
85.40000 114.300
85.50000 126.200
85.60000 129.600
85.70000 117.300
85.80000 144.200
85.90000 122.800
86.00000 137.700
86.10000 138.100
86.20000 117.500
86.30000 129.200
86.40000 125.300
86.50000 129.900
86.60000 101.600
86.70000 113.900
86.80000 130.600
86.90000 118.200
87.00000 126.300
87.10000 118.900
87.20000 97.900
87.30000 116.700
87.40000 127.600
87.50000 142.100
87.60000 130.700
87.70000 110.500
87.80000 99.200
87.90000 102.200
88.00000 121.400
88.10000 108.200
88.20000 100.100
88.30000 119.800
88.40000 116.700
88.50000 131.000
88.60000 100.700
88.70000 106.600
88.80000 107.100
88.90000 106.300
89.00000 119.000
89.10000 102.600
89.20000 120.400
89.30000 115.400
89.40000 115.400
89.50000 117.600
89.60000 120.700
89.70000 118.500
89.80000 136.500
89.90000 125.900
90.00000 133.500
90.10000 113.100
90.20000 136.200
90.30000 114.800
90.40000 111.200
90.50000 116.800
90.60000 100.500
90.70000 143.400
90.80000 113.900
90.90000 132.200
91.00000 103.100
91.10000 109.700
91.20000 97.500
91.30000 98.400
91.40000 108.400
91.50000 98.600
91.60000 115.900
91.70000 125.800
91.80000 103.100
91.90000 112.600
92.00000 98.400
92.10000 107.800
92.20000 89.100
92.30000 114.300
92.40000 87.200
92.50000 121.100
92.60000 103.000
92.70000 134.600
92.80000 113.300
92.90000 88.900
93.00000 84.600
93.10000 91.000
93.20000 109.900
93.30000 108.000
93.40000 103.600
93.50000 101.600
93.60000 105.000
93.70000 125.900
93.80000 122.500
93.90000 110.500
94.00000 106.000
94.10000 123.300
94.20000 109.500
94.30000 104.200
94.40000 90.700
94.50000 111.600
94.60000 104.300
94.70000 108.800
94.80000 101.600
94.90000 100.900
95.00000 100.800
95.10000 90.900
95.20000 99.200
95.30000 105.700
95.40000 116.900
95.50000 114.900
95.60000 110.400
95.70000 117.500
95.80000 117.000
95.90000 110.700
96.00000 107.800
96.10000 107.400
96.20000 127.000
96.30000 106.100
96.40000 100.800
96.50000 109.200
96.60000 117.200
96.70000 108.600
96.80000 113.200
96.90000 126.300
97.00000 100.600
97.10000 123.200
97.20000 100.700
97.30000 107.200
97.40000 122.600
97.50000 137.300
97.60000 130.100
97.70000 108.800
97.80000 122.000
97.90000 97.200
98.00000 113.100
98.10000 109.300
98.20000 101.400
98.30000 112.700
98.40000 109.800
98.50000 125.700
98.60000 128.400
98.70000 112.400
98.80000 108.800
98.90000 145.200
99.00000 130.300
99.10000 113.700
99.20000 107.000
99.30000 114.700
99.40000 121.000
99.50000 119.300
99.60000 109.100
99.70000 105.700
99.80000 119.100
99.90000 111.100
100 116.600
100.1 99.300
100.2 103.400
100.3 100.800
100.4 106.900
100.5 111.400
100.6 114.800
100.7 110.100
100.8 99.100
100.9 144.000
101 110.900
101.1 113.400
101.2 112.500
101.3 116.400
101.4 115.300
101.5 119.500
101.6 124.400
101.7 117.900
101.8 110.200
101.9 133.800
102 127.800
102.1 127.200
102.2 116.300
102.3 112.400
102.4 117.200
102.5 119.400
102.6 111.600
102.7 120.900
102.8 110.500
102.9 121.000
103 120.300
103.1 116.300
103.2 138.400
103.3 125.400
103.4 120.800
103.5 122.200
103.6 118.000
103.7 114.100
103.8 105.600
103.9 100.100
104 108.600
104.1 134.700
104.2 94.300
104.3 92.000
104.4 108.500
104.5 96.300
104.6 100.000
104.7 101.800
104.8 103.600
104.9 105.600
105 106.100
105.1 121.800
105.2 106.100
105.3 111.400
105.4 82.500
105.5 110.000
105.6 111.900
105.7 114.000
105.8 100.100
105.9 126.400
106 109.700
106.1 109.200
106.2 106.500
106.3 119.100
106.4 111.800
106.5 103.600
106.6 93.100
106.7 101.900
106.8 117.900
106.9 91.000
107 117.900
107.1 101.900
107.2 116.000
107.3 103.900
107.4 106.300
107.5 126.000
107.6 103.300
107.7 128.200
107.8 99.300
107.9 114.600
108 108.600
108.1 112.700
108.2 106.200
108.3 108.200
108.4 102.300
108.5 98.000
108.6 110.400
108.7 111.200
108.8 86.700
108.9 88.500
109 105.800
109.1 111.400
109.2 113.000
109.3 94.200
109.4 102.000
109.5 89.600
109.6 98.800
109.7 102.800
109.8 87.400
109.9 96.300
110 115.900
110.1 114.400
110.2 97.300
110.3 100.500
110.4 103.900
110.5 93.200
110.6 114.600
110.7 82.100
110.8 102.400
110.9 99.300
111 91.300
111.1 106.500
111.2 107.700
111.3 98.900
111.4 104.500
111.5 99.900
111.6 103.200
111.7 107.900
111.8 127.200
111.9 110.400
112 108.400
112.1 103.900
112.2 103.700
112.3 104.300
112.4 102.600
112.5 105.000
112.6 102.600
112.7 104.300
112.8 103.300
112.9 115.500
113 126.900
113.1 104.700
113.2 105.300
113.3 115.500
113.4 120.800
113.5 97.000
113.6 107.400
113.7 115.100
113.8 113.400
113.9 119.800
114 85.800
114.1 91.600
114.2 100.500
114.3 81.400
114.4 108.000
114.5 98.300
114.6 105.900
114.7 107.700
114.8 105.700
114.9 121.600
115 75.400
115.1 104.700
115.2 79.100
115.3 109.900
115.4 111.500
115.5 106.000
115.6 102.500
115.7 104.400
115.8 110.800
115.9 103.600
116 95.700
116.1 109.000
116.2 110.500
116.3 108.600
116.4 110.300
116.5 109.200
116.6 93.000
116.7 94.000
116.8 98.400
116.9 92.800
117 96.300
117.1 91.900
117.2 95.500
117.3 83.400
117.4 104.400
117.5 108.300
117.6 115.700
117.7 104.600
117.8 102.300
117.9 93.800
118 89.000
118.1 111.100
118.2 89.400
118.3 86.900
118.4 109.000
118.5 95.900
118.6 111.100
118.7 102.100
118.8 98.400
118.9 112.700
119 115.000
119.1 100.100
119.2 93.400
119.3 88.100
119.4 109.000
119.5 113.400
119.6 104.100
119.7 99.800
119.8 86.700
119.9 97.500
120 92.400
120.1 126.500
120.2 93.100
120.3 113.200
120.4 95.000
120.5 101.200
120.6 100.400
120.7 105.100
120.8 90.700
120.9 93.400
121 81.900
121.1 112.800
121.2 92.800
121.3 95.000
121.4 109.600
121.5 106.000
121.6 100.700
121.7 94.900
121.8 98.400
121.9 103.600
122 103.900
122.1 93.800
122.2 113.200
122.3 87.900
122.4 100.400
122.5 82.800
122.6 81.900
122.7 94.900
122.8 101.400
122.9 95.700
123 104.300
123.1 106.500
123.2 107.300
123.3 104.400
123.4 99.600
123.5 112.300
123.6 106.400
123.7 113.800
123.8 96.500
123.9 109.200
124 87.500
124.1 97.200
124.2 102.600
124.3 95.900
124.4 110.000
124.5 89.900
124.6 96.200
124.7 111.000
124.8 111.100
124.9 88.100
125 109.300
125.1 100.100
125.2 97.200
125.3 102.500
125.4 103.800
125.5 92.400
125.6 104.000
125.7 81.100
125.8 115.400
125.9 103.900
126 93.200
126.1 108.300
126.2 109.800
126.3 88.400
126.4 91.800
126.5 100.100
126.6 106.700
126.7 108.800
126.8 110.900
126.9 101.200
127 104.000
127.1 97.500
127.2 109.200
127.3 92.500
127.4 91.500
127.5 109.500
127.6 105.900
127.7 113.400
127.8 95.000
127.9 113.800
128 123.700
128.1 118.900
128.2 94.200
128.3 107.400
128.4 97.100
128.5 119.700
128.6 90.400
128.7 98.300
128.8 97.900
128.9 102.400
129 107.600
129.1 95.100
129.2 92.400
129.3 103.800
129.4 101.300
129.5 103.500
129.6 98.100
129.7 89.300
129.8 97.000
129.9 92.100
130 106.700
130.1 97.200
130.2 105.300
130.3 93.700
130.4 95.500
130.5 87.200
130.6 103.700
130.7 90.000
130.8 120.000
130.9 103.000
131 101.100