File: Data/Materials_HUB_Synchrotron_XRD/MQ50_XRD.xy
10.00000 2824.200
10.10000 2582.800
10.20000 2543.400
10.30000 2563.600
10.40000 2433.400
10.50000 2171.800
10.60000 2426.800
10.70000 2379.200
10.80000 2236.700
10.90000 2217.400
11.00000 2044.500
11.10000 2148.300
11.20000 2067.300
11.30000 2028.600
11.40000 1847.900
11.50000 1844.800
11.60000 1930.200
11.70000 1791.500
11.80000 1788.800
11.90000 1706.400
12.00000 1844.500
12.10000 1690.900
12.20000 1809.400
12.30000 1744.700
12.40000 1539.000
12.50000 1617.100
12.60000 1497.300
12.70000 1599.600
12.80000 1593.000
12.90000 2284.600
13.00000 1637.700
13.10000 1612.700
13.20000 1538.600
13.30000 1532.500
13.40000 1487.900
13.50000 1547.800
13.60000 1378.500
13.70000 1412.200
13.80000 1426.600
13.90000 1511.500
14.00000 1412.500
14.10000 1342.500
14.20000 1393.700
14.30000 1389.100
14.40000 1494.100
14.50000 1545.100
14.60000 1481.400
14.70000 1664.000
14.80000 1627.700
14.90000 1480.700
15.00000 1389.900
15.10000 1473.800
15.20000 1406.300
15.30000 1522.500
15.40000 1915.500
15.50000 1690.600
15.60000 1832.300
15.70000 1595.000
15.80000 1516.100
15.90000 1595.300
16.00000 1614.900
16.10000 1538.300
16.20000 1564.700
16.30000 1630.500
16.40000 1613.800
16.50000 1731.500
16.60000 1667.000
16.70000 1774.700
16.80000 1904.600
16.90000 1848.800
17.00000 1852.500
17.10000 1784.100
17.20000 1826.400
17.30000 1878.200
17.40000 1866.400
17.50000 1885.700
17.60000 1931.700
17.70000 2156.300
17.80000 4124.700
17.90000 2001.500
18.00000 1966.100
18.10000 2259.500
18.20000 2730.800
18.30000 2254.100
18.40000 2068.200
18.50000 2395.600
18.60000 2944.100
18.70000 2723.300
18.80000 2375.600
18.90000 2052.400
19.00000 2113.600
19.10000 2106.000
19.20000 2030.700
19.30000 1919.100
19.40000 2004.800
19.50000 2079.100
19.60000 2127.000
19.70000 2278.600
19.80000 2273.200
19.90000 2490.600
20.00000 2085.000
20.10000 1937.300
20.20000 1817.700
20.30000 1899.700
20.40000 1703.000
20.50000 1764.200
20.60000 1780.400
20.70000 1811.000
20.80000 1712.400
20.90000 1697.900
21.00000 1674.400
21.10000 1619.800
21.20000 1516.600
21.30000 1568.000
21.40000 1515.700
21.50000 1480.800
21.60000 1501.300
21.70000 1530.800
21.80000 1485.700
21.90000 2405.300
22.00000 1516.300
22.10000 1342.600
22.20000 1308.500
22.30000 1281.300
22.40000 1287.200
22.50000 1173.300
22.60000 1195.400
22.70000 1266.400
22.80000 1137.900
22.90000 1125.400
23.00000 1114.800
23.10000 1120.000
23.20000 1104.100
23.30000 1243.700
23.40000 1141.000
23.50000 1105.300
23.60000 1067.100
23.70000 1586.900
23.80000 1941.700
23.90000 1697.300
24.00000 1221.300
24.10000 1060.100
24.20000 1101.600
24.30000 1056.600
24.40000 912.600
24.50000 791.200
24.60000 816.200
24.70000 802.800
24.80000 762.500
24.90000 809.600
25.00000 796.300
25.10000 811.700
25.20000 781.200
25.30000 739.600
25.40000 753.400
25.50000 810.300
25.60000 893.100
25.70000 773.700
25.80000 856.400
25.90000 1012.700
26.00000 1263.400
26.10000 838.100
26.20000 693.400
26.30000 721.500
26.40000 725.600
26.50000 688.300
26.60000 660.000
26.70000 713.100
26.80000 762.700
26.90000 790.400
27.00000 920.800
27.10000 915.100
27.20000 797.600
27.30000 735.400
27.40000 755.500
27.50000 653.600
27.60000 659.800
27.70000 596.500
27.80000 612.100
27.90000 599.900
28.00000 569.000
28.10000 556.200
28.20000 575.200
28.30000 535.400
28.40000 571.200
28.50000 577.900
28.60000 567.200
28.70000 596.600
28.80000 574.100
28.90000 591.700
29.00000 575.400
29.10000 518.600
29.20000 589.400
29.30000 596.600
29.40000 648.200
29.50000 795.100
29.60000 972.500
29.70000 1752.200
29.80000 2957.600
29.90000 1631.800
30.00000 2542.000
30.10000 2050.400
30.20000 986.900
30.30000 856.400
30.40000 856.700
30.50000 675.400
30.60000 693.100
30.70000 671.900
30.80000 712.100
30.90000 705.200
31.00000 1011.900
31.10000 932.800
31.20000 1148.800
31.30000 934.300
31.40000 736.600
31.50000 686.000
31.60000 598.700
31.70000 599.200
31.80000 654.200
31.90000 682.200
32.00000 711.600
32.10000 754.600
32.20000 881.300
32.30000 978.900
32.40000 876.400
32.50000 709.500
32.60000 764.800
32.70000 662.000
32.80000 612.100
32.90000 633.100
33.00000 624.700
33.10000 662.700
33.20000 679.200
33.30000 568.500
33.40000 531.900
33.50000 486.800
33.60000 481.400
33.70000 454.700
33.80000 487.600
33.90000 453.500
34.00000 466.900
34.10000 472.200
34.20000 418.600
34.30000 449.900
34.40000 473.000
34.50000 434.800
34.60000 433.000
34.70000 453.900
34.80000 475.300
34.90000 489.200
35.00000 489.800
35.10000 483.600
35.20000 441.300
35.30000 416.600
35.40000 461.900
35.50000 405.700
35.60000 409.500
35.70000 422.000
35.80000 372.600
35.90000 400.100
36.00000 396.900
36.10000 421.900
36.20000 390.500
36.30000 421.400
36.40000 430.600
36.50000 424.700
36.60000 427.100
36.70000 482.300
36.80000 548.400
36.90000 477.200
37.00000 399.200
37.10000 383.400
37.20000 406.000
37.30000 420.200
37.40000 407.700
37.50000 433.800
37.60000 376.600
37.70000 406.200
37.80000 398.100
37.90000 391.800
38.00000 365.900
38.10000 357.400
38.20000 364.900
38.30000 396.600
38.40000 352.100
38.50000 341.300
38.60000 298.400
38.70000 279.600
38.80000 257.100
38.90000 301.500
39.00000 344.900
39.10000 264.700
39.20000 293.700
39.30000 265.300
39.40000 312.600
39.50000 329.800
39.60000 495.700
39.70000 444.000
39.80000 332.800
39.90000 346.300
40.00000 317.100
40.10000 252.800
40.20000 266.000
40.30000 256.800
40.40000 246.500
40.50000 263.200
40.60000 246.700
40.70000 221.900
40.80000 255.000
40.90000 258.600
41.00000 220.900
41.10000 249.100
41.20000 243.500
41.30000 224.100
41.40000 209.300
41.50000 178.700
41.60000 218.100
41.70000 203.600
41.80000 260.800
41.90000 224.800
42.00000 237.900
42.10000 236.000
42.20000 208.300
42.30000 231.400
42.40000 220.300
42.50000 211.400
42.60000 173.700
42.70000 194.700
42.80000 210.300
42.90000 244.200
43.00000 239.600
43.10000 254.400
43.20000 316.300
43.30000 491.800
43.40000 406.600
43.50000 241.600
43.60000 235.000
43.70000 261.600
43.80000 278.200
43.90000 281.700
44.00000 294.100
44.10000 277.400
44.20000 250.100
44.30000 240.600
44.40000 215.900
44.50000 270.700
44.60000 224.100
44.70000 303.600
44.80000 279.900
44.90000 206.500
45.00000 184.800
45.10000 208.100
45.20000 208.900
45.30000 213.700
45.40000 252.500
45.50000 390.600
45.60000 349.800
45.70000 257.300
45.80000 209.300
45.90000 197.200
46.00000 211.000
46.10000 195.600
46.20000 188.100
46.30000 165.000
46.40000 145.000
46.50000 152.600
46.60000 128.200
46.70000 191.800
46.80000 151.400
46.90000 171.500
47.00000 193.200
47.10000 171.900
47.20000 196.600
47.30000 158.200
47.40000 183.500
47.50000 210.300
47.60000 180.200
47.70000 204.600
47.80000 158.900
47.90000 199.500
48.00000 189.200
48.10000 231.200
48.20000 311.400
48.30000 294.400
48.40000 292.500
48.50000 362.100
48.60000 359.100
48.70000 396.200
48.80000 389.600
48.90000 339.100
49.00000 295.400
49.10000 273.200
49.20000 314.400
49.30000 259.600
49.40000 231.300
49.50000 194.100
49.60000 197.800
49.70000 219.300
49.80000 290.700
49.90000 266.100
50.00000 247.100
50.10000 212.600
50.20000 189.100
50.30000 134.500
50.40000 160.500
50.50000 161.500
50.60000 178.200
50.70000 190.500
50.80000 247.300
50.90000 268.300
51.00000 244.300
51.10000 233.500
51.20000 249.600
51.30000 258.000
51.40000 314.000
51.50000 329.700
51.60000 314.700
51.70000 339.500
51.80000 357.600
51.90000 388.000
52.00000 385.300
52.10000 328.800
52.20000 328.200
52.30000 290.500
52.40000 247.600
52.50000 240.100
52.60000 215.700
52.70000 222.800
52.80000 221.200
52.90000 226.300
53.00000 218.900
53.10000 257.800
53.20000 294.100
53.30000 298.800
53.40000 357.300
53.50000 332.400
53.60000 318.200
53.70000 373.100
53.80000 358.600
53.90000 329.100
54.00000 370.300
54.10000 557.500
54.20000 480.700
54.30000 410.600
54.40000 307.000
54.50000 267.200
54.60000 255.300
54.70000 264.300
54.80000 213.500
54.90000 197.600
55.00000 178.300
55.10000 180.200
55.20000 202.700
55.30000 210.800
55.40000 204.400
55.50000 206.800
55.60000 187.400
55.70000 182.000
55.80000 189.300
55.90000 215.700
56.00000 189.000
56.10000 182.900
56.20000 222.300
56.30000 224.400
56.40000 215.000
56.50000 210.400
56.60000 201.400
56.70000 237.300
56.80000 224.000
56.90000 236.600
57.00000 249.600
57.10000 211.500
57.20000 221.300
57.30000 208.900
57.40000 200.500
57.50000 175.500
57.60000 182.600
57.70000 183.400
57.80000 171.800
57.90000 187.400
58.00000 199.400
58.10000 190.100
58.20000 192.700
58.30000 216.200
58.40000 203.700
58.50000 223.700
58.60000 219.600
58.70000 210.800
58.80000 225.700
58.90000 236.400
59.00000 270.900
59.10000 283.900
59.20000 294.700
59.30000 319.200
59.40000 326.400
59.50000 288.700
59.60000 270.600
59.70000 263.900
59.80000 274.400
59.90000 271.900
60.00000 267.800
60.10000 268.100
60.20000 272.400
60.30000 209.300
60.40000 232.100
60.50000 193.400
60.60000 206.100
60.70000 212.200
60.80000 194.500
60.90000 254.000
61.00000 187.200
61.10000 161.000
61.20000 181.800
61.30000 156.400
61.40000 195.700
61.50000 165.700
61.60000 168.200
61.70000 186.300
61.80000 212.400
61.90000 201.500
62.00000 219.000
62.10000 221.300
62.20000 210.300
62.30000 196.000
62.40000 213.700
62.50000 221.500
62.60000 221.100
62.70000 257.600
62.80000 213.400
62.90000 218.600
63.00000 197.700
63.10000 203.600
63.20000 206.800
63.30000 196.200
63.40000 212.700
63.50000 208.300
63.60000 224.200
63.70000 242.600
63.80000 219.700
63.90000 257.800
64.00000 245.800
64.10000 211.500
64.20000 209.700
64.30000 240.000
64.40000 225.400
64.50000 211.800
64.60000 194.500
64.70000 181.100
64.80000 187.100
64.90000 182.700
65.00000 184.100
65.10000 201.400
65.20000 208.200
65.30000 198.900
65.40000 189.900
65.50000 196.800
65.60000 224.200
65.70000 219.800
65.80000 165.900
65.90000 179.300
66.00000 184.600
66.10000 158.200
66.20000 173.800
66.30000 149.900
66.40000 141.600
66.50000 162.800
66.60000 131.600
66.70000 139.600
66.80000 130.000
66.90000 136.300
67.00000 138.200
67.10000 123.500
67.20000 142.500
67.30000 145.500
67.40000 148.800
67.50000 144.400
67.60000 154.600
67.70000 131.700
67.80000 147.400
67.90000 127.500
68.00000 137.800
68.10000 178.900
68.20000 162.300
68.30000 169.700
68.40000 134.900
68.50000 144.100
68.60000 161.100
68.70000 171.400
68.80000 175.700
68.90000 157.500
69.00000 189.200
69.10000 194.900
69.20000 173.600
69.30000 165.100
69.40000 153.000
69.50000 145.300
69.60000 161.600
69.70000 140.700
69.80000 145.400
69.90000 115.100
70.00000 143.300
70.10000 156.600
70.20000 130.200
70.30000 141.400
70.40000 154.700
70.50000 123.900
70.60000 159.900
70.70000 155.900
70.80000 140.700
70.90000 139.300
71.00000 163.300
71.10000 152.900
71.20000 131.500
71.30000 170.800
71.40000 160.000
71.50000 152.400
71.60000 144.500
71.70000 148.300
71.80000 134.200
71.90000 127.200
72.00000 120.200
72.10000 127.200
72.20000 133.100
72.30000 135.000
72.40000 129.800
72.50000 110.700
72.60000 125.100
72.70000 115.300
72.80000 127.900
72.90000 125.900
73.00000 119.000
73.10000 122.200
73.20000 130.100
73.30000 106.400
73.40000 135.400
73.50000 142.900
73.60000 155.500
73.70000 141.100
73.80000 147.600
73.90000 150.900
74.00000 139.300
74.10000 150.000
74.20000 153.100
74.30000 136.700
74.40000 138.400
74.50000 164.900
74.60000 139.300
74.70000 154.100
74.80000 151.900
74.90000 173.600
75.00000 169.700
75.10000 191.200
75.20000 142.300
75.30000 162.300
75.40000 156.200
75.50000 140.100
75.60000 143.800
75.70000 145.700
75.80000 139.600
75.90000 116.300
76.00000 140.200
76.10000 128.400
76.20000 121.700
76.30000 127.000
76.40000 156.000
76.50000 147.800
76.60000 134.200
76.70000 127.900
76.80000 135.100
76.90000 124.000
77.00000 147.500
77.10000 130.600
77.20000 115.200
77.30000 115.600
77.40000 128.600
77.50000 118.100
77.60000 106.900
77.70000 118.700
77.80000 147.500
77.90000 132.500
78.00000 137.800
78.10000 132.200
78.20000 116.200
78.30000 162.700
78.40000 153.900
78.50000 138.700
78.60000 130.700
78.70000 123.300
78.80000 156.200
78.90000 185.000
79.00000 165.400
79.10000 119.800
79.20000 170.500
79.30000 124.000
79.40000 143.100
79.50000 146.800
79.60000 168.100
79.70000 178.000
79.80000 159.700
79.90000 153.800
80.00000 148.600
80.10000 160.200
80.20000 148.900
80.30000 159.100
80.40000 148.500
80.50000 148.300
80.60000 118.800
80.70000 162.700
80.80000 142.600
80.90000 140.200
81.00000 159.500
81.10000 144.200
81.20000 140.000
81.30000 111.800
81.40000 127.300
81.50000 118.900
81.60000 153.800
81.70000 122.700
81.80000 137.000
81.90000 133.400
82.00000 139.800
82.10000 122.000
82.20000 122.600
82.30000 100.900
82.40000 117.200
82.50000 109.800
82.60000 127.200
82.70000 113.200
82.80000 122.100
82.90000 103.300
83.00000 93.200
83.10000 121.100
83.20000 122.400
83.30000 124.800
83.40000 110.600
83.50000 114.500
83.60000 117.000
83.70000 107.900
83.80000 123.400
83.90000 116.700
84.00000 117.400
84.10000 136.400
84.20000 134.500
84.30000 132.900
84.40000 116.700
84.50000 139.400
84.60000 132.000
84.70000 129.400
84.80000 127.700
84.90000 151.500
85.00000 164.500
85.10000 153.600
85.20000 149.600
85.30000 163.600
85.40000 145.800
85.50000 170.600
85.60000 169.900
85.70000 150.200
85.80000 155.100
85.90000 160.600
86.00000 153.800
86.10000 142.300
86.20000 163.300
86.30000 145.000
86.40000 159.100
86.50000 144.900
86.60000 144.500
86.70000 155.900
86.80000 138.800
86.90000 152.400
87.00000 139.100
87.10000 128.100
87.20000 133.300
87.30000 138.500
87.40000 147.000
87.50000 137.300
87.60000 163.300
87.70000 142.700
87.80000 108.600
87.90000 145.700
88.00000 112.300
88.10000 120.400
88.20000 133.300
88.30000 147.000
88.40000 133.800
88.50000 159.600
88.60000 133.300
88.70000 128.600
88.80000 140.900
88.90000 140.700
89.00000 149.900
89.10000 130.200
89.20000 129.500
89.30000 122.400
89.40000 140.300
89.50000 143.600
89.60000 132.800
89.70000 147.100
89.80000 158.100
89.90000 146.500
90.00000 141.700
90.10000 142.800
90.20000 138.400
90.30000 138.800
90.40000 117.600
90.50000 143.200
90.60000 144.700
90.70000 124.000
90.80000 139.000
90.90000 124.300
91.00000 154.300
91.10000 145.900
91.20000 124.800
91.30000 113.000
91.40000 130.700
91.50000 113.900
91.60000 109.100
91.70000 136.900
91.80000 143.700
91.90000 108.300
92.00000 137.600
92.10000 118.100
92.20000 132.800
92.30000 132.700
92.40000 128.400
92.50000 125.500
92.60000 140.700
92.70000 116.400
92.80000 129.600
92.90000 128.600
93.00000 131.200
93.10000 119.300
93.20000 123.200
93.30000 121.200
93.40000 134.300
93.50000 122.700
93.60000 147.800
93.70000 137.100
93.80000 152.600
93.90000 133.400
94.00000 163.500
94.10000 122.800
94.20000 120.400
94.30000 134.600
94.40000 127.500
94.50000 117.800
94.60000 114.700
94.70000 118.500
94.80000 143.200
94.90000 137.700
95.00000 124.100
95.10000 99.200
95.20000 121.400
95.30000 107.400
95.40000 161.800
95.50000 120.000
95.60000 124.900
95.70000 145.300
95.80000 159.600
95.90000 138.300
96.00000 143.900
96.10000 141.300
96.20000 149.300
96.30000 117.100
96.40000 128.300
96.50000 141.100
96.60000 154.900
96.70000 135.500
96.80000 121.300
96.90000 110.700
97.00000 145.300
97.10000 136.200
97.20000 137.300
97.30000 156.200
97.40000 138.400
97.50000 150.100
97.60000 149.100
97.70000 120.400
97.80000 132.600
97.90000 158.700
98.00000 171.800
98.10000 155.200
98.20000 137.400
98.30000 141.900
98.40000 130.400
98.50000 152.300
98.60000 147.100
98.70000 142.600
98.80000 143.800
98.90000 164.500
99.00000 123.200
99.10000 164.500
99.20000 155.500
99.30000 156.300
99.40000 110.800
99.50000 130.900
99.60000 132.400
99.70000 144.000
99.80000 134.500
99.90000 119.600
100 130.400
100.1 133.900
100.2 141.700
100.3 139.300
100.4 146.600
100.5 149.700
100.6 141.400
100.7 129.600
100.8 140.400
100.9 130.300
101 152.900
101.1 143.300
101.2 149.700
101.3 152.400
101.4 142.800
101.5 166.800
101.6 164.300
101.7 138.000
101.8 170.500
101.9 119.000
102 176.700
102.1 143.800
102.2 139.000
102.3 130.300
102.4 163.000
102.5 155.200
102.6 140.700
102.7 165.500
102.8 150.500
102.9 152.100
103 168.800
103.1 164.400
103.2 188.900
103.3 178.500
103.4 205.000
103.5 163.400
103.6 138.400
103.7 147.600
103.8 159.300
103.9 148.300
104 119.600
104.1 138.500
104.2 119.100
104.3 124.100
104.4 134.000
104.5 144.000
104.6 138.400
104.7 145.400
104.8 153.300
104.9 132.900
105 142.500
105.1 159.100
105.2 154.900
105.3 150.400
105.4 137.800
105.5 131.000
105.6 126.600
105.7 126.400
105.8 136.800
105.9 140.400
106 138.800
106.1 110.700
106.2 149.000
106.3 146.900
106.4 150.700
106.5 119.800
106.6 130.100
106.7 121.500
106.8 127.400
106.9 159.100
107 125.500
107.1 120.200
107.2 137.800
107.3 128.100
107.4 121.800
107.5 130.000
107.6 141.100
107.7 137.100
107.8 132.400
107.9 155.300
108 132.900
108.1 126.400
108.2 135.800
108.3 135.000
108.4 123.200
108.5 130.100
108.6 110.000
108.7 137.300
108.8 124.200
108.9 147.900
109 141.400
109.1 123.800
109.2 123.100
109.3 135.200
109.4 113.900
109.5 125.200
109.6 128.900
109.7 126.700
109.8 128.400
109.9 120.400
110 112.100
110.1 124.000
110.2 151.000
110.3 124.400
110.4 113.900
110.5 118.200
110.6 115.600
110.7 129.300
110.8 136.500
110.9 151.500
111 132.300
111.1 128.500
111.2 132.000
111.3 128.000
111.4 113.600
111.5 142.900
111.6 116.700
111.7 123.900
111.8 130.600
111.9 138.300
112 123.700
112.1 124.500
112.2 122.000
112.3 125.200
112.4 125.200
112.5 160.400
112.6 99.000
112.7 143.400
112.8 119.000
112.9 147.700
113 128.000
113.1 129.100
113.2 137.400
113.3 134.100
113.4 129.000
113.5 134.600
113.6 138.100
113.7 134.900
113.8 126.800
113.9 127.100
114 127.700
114.1 148.500
114.2 133.500
114.3 129.300
114.4 121.200
114.5 151.100
114.6 115.100
114.7 133.700
114.8 133.700
114.9 116.400
115 127.500
115.1 133.200
115.2 111.200
115.3 105.800
115.4 145.600
115.5 98.000
115.6 130.600
115.7 106.900
115.8 132.700
115.9 144.800
116 130.100
116.1 125.500
116.2 119.600
116.3 117.600
116.4 118.000
116.5 140.300
116.6 107.200
116.7 127.200
116.8 131.400
116.9 121.000
117 107.200
117.1 109.000
117.2 123.700
117.3 134.900
117.4 128.100
117.5 134.200
117.6 110.900
117.7 121.000
117.8 126.700
117.9 113.000
118 115.500
118.1 107.500
118.2 118.500
118.3 120.900
118.4 139.500
118.5 113.100
118.6 136.900
118.7 124.900
118.8 108.900
118.9 127.500
119 135.600
119.1 137.600
119.2 133.300
119.3 105.500
119.4 119.100
119.5 110.300
119.6 112.600
119.7 129.500
119.8 111.500
119.9 121.400
120 113.900
120.1 117.300
120.2 126.200
120.3 122.700
120.4 121.400
120.5 125.500
120.6 147.400
120.7 104.300
120.8 129.100
120.9 117.000
121 123.400
121.1 130.100
121.2 127.900
121.3 136.900
121.4 133.900
121.5 114.400
121.6 118.000
121.7 127.000
121.8 114.000
121.9 114.600
122 124.600
122.1 108.100
122.2 133.400
122.3 130.100
122.4 121.400
122.5 127.700
122.6 110.300
122.7 131.400
122.8 120.200
122.9 132.600
123 128.100
123.1 115.000
123.2 123.800
123.3 114.400
123.4 116.800
123.5 123.100
123.6 139.300
123.7 134.500
123.8 139.800
123.9 126.500
124 120.800
124.1 122.300
124.2 146.300
124.3 118.800
124.4 120.100
124.5 128.900
124.6 136.300
124.7 135.700
124.8 102.800
124.9 133.000
125 132.900
125.1 127.800
125.2 130.300
125.3 130.100
125.4 123.900
125.5 129.000
125.6 130.100
125.7 120.200
125.8 139.100
125.9 155.700
126 126.000
126.1 138.800
126.2 112.600
126.3 124.900
126.4 143.300
126.5 135.200
126.6 157.400
126.7 135.900
126.8 137.400
126.9 130.200
127 134.500
127.1 130.400
127.2 114.400
127.3 128.500
127.4 129.900
127.5 131.500
127.6 149.100
127.7 156.800
127.8 151.200
127.9 133.000
128 122.600
128.1 128.000
128.2 134.100
128.3 132.300
128.4 127.000
128.5 139.200
128.6 117.000
128.7 141.100
128.8 129.100
128.9 121.400
129 149.500
129.1 164.500
129.2 128.100
129.3 115.000
129.4 129.800
129.5 128.100
129.6 140.400
129.7 137.100
129.8 128.100
129.9 138.600
130 135.700
130.1 131.400
130.2 132.500
130.3 143.600
130.4 131.000
130.5 152.600
130.6 155.300
130.7 133.400
130.8 126.500
130.9 117.500
131 135.300