File: Data/Materials_HUB_Synchrotron_XRD/MQ51_XRD.xy
10.00000 2696.200
10.10000 2751.900
10.20000 2517.600
10.30000 2558.900
10.40000 2543.000
10.50000 2356.000
10.60000 2368.200
10.70000 2238.900
10.80000 2287.100
10.90000 2219.300
11.00000 2227.900
11.10000 2121.000
11.20000 2256.400
11.30000 2085.800
11.40000 1943.200
11.50000 2046.900
11.60000 1976.300
11.70000 1875.500
11.80000 1928.500
11.90000 1788.200
12.00000 1871.000
12.10000 1669.300
12.20000 1758.800
12.30000 1682.000
12.40000 1618.100
12.50000 1655.900
12.60000 1685.500
12.70000 1562.400
12.80000 1685.400
12.90000 1968.000
13.00000 1676.200
13.10000 1479.600
13.20000 1526.500
13.30000 1518.000
13.40000 1493.300
13.50000 1574.600
13.60000 1500.400
13.70000 1429.600
13.80000 1398.000
13.90000 1471.500
14.00000 1391.400
14.10000 1475.600
14.20000 1477.600
14.30000 1431.700
14.40000 1413.500
14.50000 1537.200
14.60000 1511.600
14.70000 1653.300
14.80000 1651.500
14.90000 1542.300
15.00000 1460.300
15.10000 1434.500
15.20000 1498.400
15.30000 1591.200
15.40000 2113.800
15.50000 1694.100
15.60000 1865.000
15.70000 1541.200
15.80000 1546.100
15.90000 1710.900
16.00000 1598.700
16.10000 1578.000
16.20000 1580.200
16.30000 1558.400
16.40000 1673.200
16.50000 1696.900
16.60000 1668.000
16.70000 1627.600
16.80000 1735.400
16.90000 1707.100
17.00000 1723.100
17.10000 1702.000
17.20000 1776.600
17.30000 1862.200
17.40000 1886.700
17.50000 1827.100
17.60000 1795.600
17.70000 2110.800
17.80000 3495.300
17.90000 2423.500
18.00000 2096.000
18.10000 2350.100
18.20000 2803.900
18.30000 2478.500
18.40000 2423.700
18.50000 2699.000
18.60000 2838.200
18.70000 2683.600
18.80000 2358.900
18.90000 2063.000
19.00000 2017.100
19.10000 2056.600
19.20000 2005.500
19.30000 2115.900
19.40000 2087.900
19.50000 2082.900
19.60000 2026.400
19.70000 2264.200
19.80000 2310.000
19.90000 2719.600
20.00000 2210.600
20.10000 1988.900
20.20000 1969.000
20.30000 1856.600
20.40000 1976.200
20.50000 1834.200
20.60000 1838.000
20.70000 1657.200
20.80000 1713.300
20.90000 1655.700
21.00000 1619.700
21.10000 1557.500
21.20000 1654.400
21.30000 1642.900
21.40000 1493.300
21.50000 1509.700
21.60000 1539.400
21.70000 1539.800
21.80000 1542.700
21.90000 2424.400
22.00000 1752.400
22.10000 1355.600
22.20000 1238.400
22.30000 1297.000
22.40000 1219.800
22.50000 1164.100
22.60000 1201.000
22.70000 1135.500
22.80000 1174.200
22.90000 1060.800
23.00000 1120.000
23.10000 1031.800
23.20000 1079.600
23.30000 1165.900
23.40000 1184.300
23.50000 1138.600
23.60000 1189.700
23.70000 1375.400
23.80000 1922.500
23.90000 1764.200
24.00000 1359.600
24.10000 1284.600
24.20000 1144.500
24.30000 918.000
24.40000 922.100
24.50000 888.700
24.60000 850.500
24.70000 823.700
24.80000 779.800
24.90000 749.200
25.00000 754.000
25.10000 735.700
25.20000 786.000
25.30000 737.600
25.40000 729.000
25.50000 858.400
25.60000 912.300
25.70000 812.600
25.80000 869.800
25.90000 961.400
26.00000 1400.300
26.10000 1053.400
26.20000 801.700
26.30000 715.900
26.40000 734.500
26.50000 642.500
26.60000 631.200
26.70000 662.200
26.80000 730.600
26.90000 698.000
27.00000 627.700
27.10000 670.400
27.20000 633.700
27.30000 622.700
27.40000 726.900
27.50000 686.600
27.60000 606.800
27.70000 595.700
27.80000 596.400
27.90000 547.900
28.00000 548.500
28.10000 533.600
28.20000 553.700
28.30000 567.100
28.40000 534.700
28.50000 555.600
28.60000 553.300
28.70000 566.100
28.80000 576.500
28.90000 554.000
29.00000 574.500
29.10000 552.500
29.20000 644.500
29.30000 631.900
29.40000 660.200
29.50000 892.000
29.60000 1402.300
29.70000 2350.400
29.80000 2314.800
29.90000 1996.200
30.00000 2256.000
30.10000 1898.000
30.20000 1243.500
30.30000 978.900
30.40000 875.900
30.50000 784.600
30.60000 693.800
30.70000 728.900
30.80000 717.100
30.90000 818.000
31.00000 956.600
31.10000 924.800
31.20000 926.600
31.30000 841.400
31.40000 741.700
31.50000 576.100
31.60000 494.600
31.70000 480.100
31.80000 533.000
31.90000 541.200
32.00000 638.700
32.10000 584.200
32.20000 636.100
32.30000 674.300
32.40000 624.700
32.50000 555.500
32.60000 506.800
32.70000 522.300
32.80000 536.100
32.90000 561.500
33.00000 600.900
33.10000 583.000
33.20000 617.600
33.30000 503.500
33.40000 496.700
33.50000 446.300
33.60000 464.800
33.70000 492.100
33.80000 448.900
33.90000 418.800
34.00000 406.800
34.10000 425.200
34.20000 412.800
34.30000 432.100
34.40000 439.800
34.50000 390.300
34.60000 416.400
34.70000 401.300
34.80000 471.500
34.90000 473.200
35.00000 445.200
35.10000 408.500
35.20000 399.200
35.30000 446.200
35.40000 363.800
35.50000 389.500
35.60000 407.700
35.70000 418.100
35.80000 362.400
35.90000 364.500
36.00000 405.800
36.10000 410.200
36.20000 388.200
36.30000 371.800
36.40000 371.500
36.50000 425.100
36.60000 455.100
36.70000 477.600
36.80000 479.800
36.90000 447.100
37.00000 431.100
37.10000 387.200
37.20000 411.200
37.30000 417.900
37.40000 465.800
37.50000 417.000
37.60000 433.800
37.70000 430.700
37.80000 409.800
37.90000 343.900
38.00000 390.800
38.10000 345.100
38.20000 387.300
38.30000 356.600
38.40000 354.100
38.50000 313.900
38.60000 308.200
38.70000 276.600
38.80000 249.700
38.90000 296.100
39.00000 299.200
39.10000 283.000
39.20000 248.600
39.30000 311.200
39.40000 289.600
39.50000 367.800
39.60000 429.800
39.70000 476.300
39.80000 350.500
39.90000 307.500
40.00000 330.300
40.10000 319.900
40.20000 279.800
40.30000 275.200
40.40000 273.100
40.50000 258.800
40.60000 299.500
40.70000 267.800
40.80000 245.400
40.90000 265.100
41.00000 247.800
41.10000 224.300
41.20000 240.200
41.30000 252.100
41.40000 238.400
41.50000 224.700
41.60000 207.600
41.70000 208.900
41.80000 207.700
41.90000 210.800
42.00000 213.100
42.10000 258.300
42.20000 220.900
42.30000 226.100
42.40000 219.600
42.50000 210.400
42.60000 209.000
42.70000 236.300
42.80000 227.400
42.90000 267.900
43.00000 232.000
43.10000 272.400
43.20000 291.100
43.30000 397.300
43.40000 481.400
43.50000 317.800
43.60000 243.700
43.70000 222.400
43.80000 263.800
43.90000 293.800
44.00000 294.200
44.10000 299.900
44.20000 281.800
44.30000 260.400
44.40000 241.400
44.50000 277.700
44.60000 242.800
44.70000 280.300
44.80000 237.000
44.90000 194.000
45.00000 192.800
45.10000 196.200
45.20000 176.100
45.30000 196.200
45.40000 232.300
45.50000 328.900
45.60000 291.300
45.70000 257.300
45.80000 198.900
45.90000 216.800
46.00000 195.800
46.10000 185.600
46.20000 152.900
46.30000 154.500
46.40000 161.500
46.50000 162.100
46.60000 185.000
46.70000 152.500
46.80000 159.100
46.90000 164.900
47.00000 176.700
47.10000 161.500
47.20000 159.700
47.30000 182.900
47.40000 156.100
47.50000 167.200
47.60000 222.400
47.70000 172.600
47.80000 174.300
47.90000 183.200
48.00000 204.600
48.10000 238.400
48.20000 248.900
48.30000 308.400
48.40000 291.200
48.50000 307.100
48.60000 347.100
48.70000 427.400
48.80000 425.300
48.90000 406.200
49.00000 329.800
49.10000 289.100
49.20000 242.600
49.30000 268.400
49.40000 241.400
49.50000 207.500
49.60000 224.400
49.70000 259.100
49.80000 263.200
49.90000 203.100
50.00000 210.700
50.10000 180.700
50.20000 174.200
50.30000 157.000
50.40000 149.100
50.50000 158.100
50.60000 169.700
50.70000 158.300
50.80000 201.900
50.90000 213.300
51.00000 199.900
51.10000 205.300
51.20000 206.600
51.30000 188.100
51.40000 179.400
51.50000 194.100
51.60000 195.100
51.70000 198.300
51.80000 206.300
51.90000 207.600
52.00000 206.100
52.10000 249.500
52.20000 229.200
52.30000 221.600
52.40000 185.600
52.50000 231.100
52.60000 215.000
52.70000 205.000
52.80000 231.600
52.90000 259.500
53.00000 224.700
53.10000 235.800
53.20000 272.900
53.30000 288.100
53.40000 280.900
53.50000 283.500
53.60000 281.800
53.70000 282.700
53.80000 324.000
53.90000 321.600
54.00000 339.100
54.10000 452.000
54.20000 549.300
54.30000 429.400
54.40000 348.100
54.50000 272.700
54.60000 223.000
54.70000 244.600
54.80000 193.800
54.90000 199.200
55.00000 187.100
55.10000 201.700
55.20000 190.700
55.30000 173.400
55.40000 173.200
55.50000 200.300
55.60000 177.200
55.70000 184.700
55.80000 166.800
55.90000 185.200
56.00000 182.200
56.10000 177.400
56.20000 183.000
56.30000 185.300
56.40000 211.500
56.50000 387.700
56.60000 231.400
56.70000 212.900
56.80000 222.200
56.90000 236.100
57.00000 246.200
57.10000 247.200
57.20000 223.900
57.30000 193.100
57.40000 184.100
57.50000 184.100
57.60000 163.800
57.70000 153.500
57.80000 200.900
57.90000 202.300
58.00000 184.700
58.10000 163.200
58.20000 191.000
58.30000 173.100
58.40000 198.000
58.50000 199.700
58.60000 162.100
58.70000 182.400
58.80000 199.300
58.90000 181.700
59.00000 210.000
59.10000 213.600
59.20000 234.000
59.30000 235.400
59.40000 211.900
59.50000 206.500
59.60000 237.600
59.70000 211.400
59.80000 188.900
59.90000 221.800
60.00000 206.400
60.10000 193.500
60.20000 219.500
60.30000 211.500
60.40000 214.700
60.50000 185.900
60.60000 153.300
60.70000 182.000
60.80000 189.200
60.90000 218.800
61.00000 180.500
61.10000 168.100
61.20000 190.300
61.30000 184.100
61.40000 158.800
61.50000 172.300
61.60000 179.900
61.70000 157.300
61.80000 175.500
61.90000 167.400
62.00000 197.800
62.10000 192.000
62.20000 161.100
62.30000 173.100
62.40000 161.900
62.50000 193.700
62.60000 167.000
62.70000 192.700
62.80000 200.900
62.90000 179.800
63.00000 191.600
63.10000 154.700
63.20000 199.100
63.30000 163.700
63.40000 192.800
63.50000 178.600
63.60000 192.300
63.70000 204.200
63.80000 236.900
63.90000 219.600
64.00000 205.500
64.10000 206.200
64.20000 192.900
64.30000 187.500
64.40000 176.200
64.50000 179.200
64.60000 191.500
64.70000 182.900
64.80000 167.500
64.90000 143.900
65.00000 151.800
65.10000 164.100
65.20000 177.700
65.30000 173.200
65.40000 197.700
65.50000 212.800
65.60000 210.300
65.70000 211.400
65.80000 186.700
65.90000 156.000
66.00000 148.800
66.10000 173.900
66.20000 152.600
66.30000 169.500
66.40000 141.400
66.50000 135.700
66.60000 148.300
66.70000 150.500
66.80000 132.000
66.90000 132.900
67.00000 123.600
67.10000 109.400
67.20000 112.900
67.30000 111.900
67.40000 122.300
67.50000 110.900
67.60000 137.300
67.70000 155.500
67.80000 144.400
67.90000 134.400
68.00000 130.500
68.10000 136.500
68.20000 142.700
68.30000 130.800
68.40000 127.600
68.50000 139.300
68.60000 135.300
68.70000 142.900
68.80000 154.400
68.90000 168.600
69.00000 152.000
69.10000 159.900
69.20000 159.900
69.30000 145.100
69.40000 138.400
69.50000 150.700
69.60000 148.100
69.70000 135.400
69.80000 133.300
69.90000 136.300
70.00000 139.000
70.10000 120.200
70.20000 110.800
70.30000 116.000
70.40000 116.900
70.50000 137.700
70.60000 115.500
70.70000 137.000
70.80000 119.700
70.90000 128.100
71.00000 126.000
71.10000 158.600
71.20000 126.900
71.30000 127.000
71.40000 153.800
71.50000 152.400
71.60000 134.500
71.70000 148.300
71.80000 134.000
71.90000 112.800
72.00000 111.700
72.10000 117.000
72.20000 126.500
72.30000 97.300
72.40000 124.100
72.50000 99.500
72.60000 111.600
72.70000 104.100
72.80000 122.900
72.90000 122.800
73.00000 97.200
73.10000 124.700
73.20000 106.000
73.30000 116.900
73.40000 130.600
73.50000 114.800
73.60000 97.200
73.70000 138.300
73.80000 134.300
73.90000 123.600
74.00000 136.100
74.10000 119.600
74.20000 119.100
74.30000 117.200
74.40000 119.400
74.50000 129.500
74.60000 135.200
74.70000 157.900
74.80000 145.100
74.90000 126.800
75.00000 130.600
75.10000 157.200
75.20000 141.300
75.30000 123.400
75.40000 124.100
75.50000 124.400
75.60000 118.400
75.70000 133.700
75.80000 102.400
75.90000 117.600
76.00000 99.300
76.10000 124.200
76.20000 108.700
76.30000 116.300
76.40000 115.600
76.50000 130.800
76.60000 123.300
76.70000 98.200
76.80000 101.900
76.90000 126.600
77.00000 106.800
77.10000 120.800
77.20000 107.600
77.30000 113.100
77.40000 108.300
77.50000 97.200
77.60000 96.600
77.70000 94.700
77.80000 103.600
77.90000 113.800
78.00000 117.000
78.10000 131.700
78.20000 114.400
78.30000 105.300
78.40000 111.200
78.50000 132.200
78.60000 114.900
78.70000 113.500
78.80000 123.200
78.90000 130.100
79.00000 107.400
79.10000 128.100
79.20000 119.000
79.30000 123.800
79.40000 136.100
79.50000 111.600
79.60000 103.100
79.70000 117.400
79.80000 112.300
79.90000 127.100
80.00000 116.500
80.10000 122.800
80.20000 104.600
80.30000 106.500
80.40000 105.800
80.50000 104.600
80.60000 86.000
80.70000 115.700
80.80000 97.900
80.90000 97.600
81.00000 121.900
81.10000 107.500
81.20000 109.700
81.30000 113.500
81.40000 110.700
81.50000 116.900
81.60000 110.800
81.70000 119.000
81.80000 121.700
81.90000 100.300
82.00000 118.000
82.10000 105.500
82.20000 114.100
82.30000 106.200
82.40000 99.800
82.50000 79.300
82.60000 92.100
82.70000 106.700
82.80000 96.200
82.90000 93.400
83.00000 84.500
83.10000 117.000
83.20000 98.500
83.30000 117.900
83.40000 99.800
83.50000 110.800
83.60000 102.800
83.70000 93.000
83.80000 125.000
83.90000 102.800
84.00000 121.700
84.10000 118.000
84.20000 107.000
84.30000 102.100
84.40000 109.600
84.50000 101.300
84.60000 121.800
84.70000 113.200
84.80000 130.800
84.90000 96.900
85.00000 117.800
85.10000 104.100
85.20000 129.100
85.30000 113.400
85.40000 105.900
85.50000 127.800
85.60000 125.000
85.70000 113.200
85.80000 120.500
85.90000 114.300
86.00000 116.100
86.10000 114.200
86.20000 128.700
86.30000 114.100
86.40000 116.900
86.50000 122.800
86.60000 108.700
86.70000 126.700
86.80000 125.300
86.90000 129.800
87.00000 116.200
87.10000 116.400
87.20000 121.800
87.30000 115.400
87.40000 117.700
87.50000 117.100
87.60000 119.100
87.70000 129.000
87.80000 121.700
87.90000 114.600
88.00000 112.600
88.10000 114.000
88.20000 123.600
88.30000 122.600
88.40000 124.800
88.50000 114.800
88.60000 133.200
88.70000 134.500
88.80000 155.700
88.90000 115.500
89.00000 122.300
89.10000 112.000
89.20000 106.900
89.30000 101.000
89.40000 127.400
89.50000 103.200
89.60000 119.300
89.70000 120.200
89.80000 114.400
89.90000 111.500
90.00000 111.100
90.10000 105.100
90.20000 137.700
90.30000 103.800
90.40000 112.700
90.50000 114.700
90.60000 120.100
90.70000 107.100
90.80000 117.200
90.90000 114.900
91.00000 110.900
91.10000 97.200
91.20000 109.300
91.30000 99.700
91.40000 101.200
91.50000 107.200
91.60000 117.300
91.70000 106.600
91.80000 94.200
91.90000 98.900
92.00000 95.900
92.10000 116.800
92.20000 111.000
92.30000 90.500
92.40000 106.900
92.50000 112.000
92.60000 116.000
92.70000 125.800
92.80000 106.300
92.90000 111.800
93.00000 104.000
93.10000 100.500
93.20000 119.500
93.30000 115.900
93.40000 112.600
93.50000 129.300
93.60000 111.400
93.70000 112.900
93.80000 112.900
93.90000 105.500
94.00000 108.200
94.10000 113.300
94.20000 132.700
94.30000 121.800
94.40000 100.300
94.50000 113.300
94.60000 119.000
94.70000 120.500
94.80000 119.200
94.90000 106.900
95.00000 115.500
95.10000 105.000
95.20000 110.900
95.30000 108.000
95.40000 105.200
95.50000 111.100
95.60000 111.200
95.70000 136.800
95.80000 163.900
95.90000 119.600
96.00000 111.000
96.10000 117.200
96.20000 105.100
96.30000 104.800
96.40000 115.800
96.50000 122.100
96.60000 120.000
96.70000 107.200
96.80000 97.300
96.90000 114.200
97.00000 128.800
97.10000 119.300
97.20000 98.700
97.30000 117.900
97.40000 105.700
97.50000 133.500
97.60000 114.600
97.70000 115.300
97.80000 105.600
97.90000 104.900
98.00000 104.800
98.10000 121.500
98.20000 100.200
98.30000 126.400
98.40000 106.900
98.50000 125.600
98.60000 107.100
98.70000 101.100
98.80000 120.100
98.90000 110.800
99.00000 113.100
99.10000 122.400
99.20000 113.200
99.30000 96.100
99.40000 107.700
99.50000 100.900
99.60000 95.100
99.70000 102.500
99.80000 106.300
99.90000 130.500
100 95.000
100.1 124.300
100.2 111.200
100.3 114.200
100.4 117.900
100.5 139.300
100.6 120.300
100.7 115.300
100.8 109.000
100.9 127.000
101 115.200
101.1 114.300
101.2 102.800
101.3 117.700
101.4 118.500
101.5 141.200
101.6 137.800
101.7 120.600
101.8 107.800
101.9 117.000
102 115.900
102.1 135.900
102.2 118.400
102.3 112.100
102.4 113.800
102.5 134.700
102.6 115.100
102.7 121.700
102.8 127.400
102.9 135.000
103 117.300
103.1 132.300
103.2 126.700
103.3 117.800
103.4 119.400
103.5 130.600
103.6 101.500
103.7 125.200
103.8 118.800
103.9 122.400
104 110.800
104.1 101.700
104.2 117.600
104.3 105.300
104.4 103.100
104.5 130.000
104.6 113.800
104.7 107.700
104.8 94.100
104.9 111.000
105 118.800
105.1 95.700
105.2 116.700
105.3 83.400
105.4 103.900
105.5 106.100
105.6 110.800
105.7 111.300
105.8 95.300
105.9 108.000
106 90.800
106.1 85.300
106.2 109.100
106.3 116.900
106.4 110.600
106.5 120.400
106.6 109.600
106.7 102.600
106.8 110.100
106.9 103.900
107 142.900
107.1 112.100
107.2 114.800
107.3 111.900
107.4 108.800
107.5 110.100
107.6 106.700
107.7 143.200
107.8 133.000
107.9 105.700
108 102.700
108.1 116.000
108.2 110.300
108.3 127.600
108.4 112.500
108.5 117.800
108.6 106.400
108.7 107.000
108.8 105.600
108.9 88.500
109 120.100
109.1 105.700
109.2 110.600
109.3 94.500
109.4 129.000
109.5 106.900
109.6 121.500
109.7 115.200
109.8 134.000
109.9 129.000
110 114.100
110.1 107.100
110.2 94.000
110.3 111.100
110.4 111.200
110.5 93.400
110.6 100.000
110.7 99.300
110.8 115.000
110.9 112.700
111 123.200
111.1 123.000
111.2 110.500
111.3 99.600
111.4 129.900
111.5 104.200
111.6 106.800
111.7 120.900
111.8 104.800
111.9 119.600
112 105.700
112.1 109.900
112.2 99.200
112.3 97.900
112.4 103.100
112.5 96.600
112.6 113.500
112.7 131.500
112.8 106.900
112.9 95.600
113 103.000
113.1 103.900
113.2 109.000
113.3 101.500
113.4 112.000
113.5 108.900
113.6 110.000
113.7 106.300
113.8 102.000
113.9 114.000
114 97.600
114.1 117.900
114.2 103.700
114.3 111.300
114.4 103.900
114.5 104.100
114.6 107.800
114.7 115.400
114.8 107.200
114.9 116.300
115 86.400
115.1 115.400
115.2 127.900
115.3 113.100
115.4 103.400
115.5 119.300
115.6 123.100
115.7 110.100
115.8 95.500
115.9 91.300
116 102.100
116.1 117.500
116.2 113.000
116.3 101.300
116.4 105.900
116.5 110.900
116.6 98.600
116.7 97.600
116.8 102.100
116.9 101.700
117 105.200
117.1 87.900
117.2 116.300
117.3 99.200
117.4 98.900
117.5 83.900
117.6 97.900
117.7 90.100
117.8 101.300
117.9 113.800
118 89.400
118.1 94.300
118.2 98.000
118.3 93.500
118.4 89.700
118.5 99.700
118.6 105.500
118.7 85.900
118.8 89.700
118.9 93.400
119 107.700
119.1 98.600
119.2 99.300
119.3 105.500
119.4 124.400
119.5 96.200
119.6 83.800
119.7 95.100
119.8 109.200
119.9 105.300
120 102.800
120.1 94.100
120.2 99.100
120.3 84.300
120.4 101.200
120.5 110.400
120.6 89.700
120.7 97.900
120.8 107.500
120.9 120.300
121 86.400
121.1 113.400
121.2 97.200
121.3 94.200
121.4 89.600
121.5 90.400
121.6 101.900
121.7 106.400
121.8 89.000
121.9 102.100
122 106.300
122.1 110.700
122.2 105.200
122.3 97.500
122.4 99.100
122.5 110.400
122.6 106.500
122.7 89.600
122.8 94.800
122.9 89.500
123 100.800
123.1 101.300
123.2 96.200
123.3 119.600
123.4 81.900
123.5 95.200
123.6 94.400
123.7 85.700
123.8 97.300
123.9 98.000
124 98.200
124.1 92.000
124.2 95.200
124.3 77.500
124.4 103.800
124.5 103.500
124.6 103.700
124.7 95.300
124.8 84.900
124.9 100.100
125 89.200
125.1 88.100
125.2 94.300
125.3 112.000
125.4 104.700
125.5 88.500
125.6 110.500
125.7 104.100
125.8 85.200
125.9 97.400
126 95.700
126.1 85.200
126.2 101.900
126.3 94.500
126.4 123.400
126.5 82.400
126.6 92.000
126.7 107.900
126.8 97.700
126.9 98.700
127 100.100
127.1 103.200
127.2 96.100
127.3 99.400
127.4 109.600
127.5 103.000
127.6 104.100
127.7 103.300
127.8 97.900
127.9 105.800
128 110.800
128.1 111.300
128.2 100.700
128.3 98.900
128.4 104.500
128.5 101.600
128.6 94.300
128.7 93.100
128.8 97.100
128.9 106.000
129 116.300
129.1 107.800
129.2 109.800
129.3 91.700
129.4 112.500
129.5 95.700
129.6 127.400
129.7 96.700
129.8 106.800
129.9 88.200
130 102.600
130.1 103.900
130.2 103.600
130.3 98.200
130.4 100.800
130.5 114.300
130.6 93.600
130.7 92.100
130.8 106.400
130.9 95.300
131 120.400