File: Data/Materials_HUB_Synchrotron_XRD/MQ53_XRD.xy
10.00000 2771.300
10.10000 2681.200
10.20000 2844.300
10.30000 2413.600
10.40000 2498.800
10.50000 2370.800
10.60000 2200.400
10.70000 2439.700
10.80000 2342.700
10.90000 2137.300
11.00000 2100.800
11.10000 2139.000
11.20000 1999.500
11.30000 1956.200
11.40000 1860.400
11.50000 1957.800
11.60000 1984.600
11.70000 1812.100
11.80000 1840.400
11.90000 1794.600
12.00000 1768.700
12.10000 1711.200
12.20000 1657.600
12.30000 1676.200
12.40000 1595.000
12.50000 1728.800
12.60000 1665.600
12.70000 1644.400
12.80000 1530.600
12.90000 2024.000
13.00000 1675.800
13.10000 1508.200
13.20000 1430.200
13.30000 1503.200
13.40000 1673.700
13.50000 1569.600
13.60000 1466.300
13.70000 1452.800
13.80000 1429.900
13.90000 1329.900
14.00000 1367.600
14.10000 1423.600
14.20000 1376.300
14.30000 1447.900
14.40000 1405.900
14.50000 1414.600
14.60000 1493.300
14.70000 1681.000
14.80000 1528.300
14.90000 1488.700
15.00000 1445.300
15.10000 1387.900
15.20000 1564.000
15.30000 1547.200
15.40000 1839.000
15.50000 1651.700
15.60000 1891.100
15.70000 1589.400
15.80000 1548.900
15.90000 1566.900
16.00000 1551.300
16.10000 1665.300
16.20000 1631.800
16.30000 1625.700
16.40000 1671.000
16.50000 1584.200
16.60000 1558.900
16.70000 1795.100
16.80000 1800.300
16.90000 1902.100
17.00000 1712.600
17.10000 1774.800
17.20000 1798.200
17.30000 1781.500
17.40000 1858.100
17.50000 1869.500
17.60000 1859.100
17.70000 1961.900
17.80000 4016.000
17.90000 2013.500
18.00000 1968.900
18.10000 2240.600
18.20000 2701.600
18.30000 2074.200
18.40000 2068.600
18.50000 2084.700
18.60000 3120.100
18.70000 2542.000
18.80000 2656.800
18.90000 2094.500
19.00000 1967.600
19.10000 1959.800
19.20000 2069.900
19.30000 2007.700
19.40000 2067.300
19.50000 1981.800
19.60000 1958.500
19.70000 2411.900
19.80000 2227.100
19.90000 2827.500
20.00000 2151.300
20.10000 1945.500
20.20000 1902.800
20.30000 1783.000
20.40000 1814.300
20.50000 1727.100
20.60000 1683.400
20.70000 1733.700
20.80000 1680.400
20.90000 1709.500
21.00000 1657.900
21.10000 1593.100
21.20000 1513.300
21.30000 1616.200
21.40000 1468.100
21.50000 1419.700
21.60000 1489.400
21.70000 1520.500
21.80000 1417.100
21.90000 2495.000
22.00000 1524.800
22.10000 1386.200
22.20000 1275.300
22.30000 1209.000
22.40000 1213.200
22.50000 1141.600
22.60000 1185.500
22.70000 1171.600
22.80000 1187.100
22.90000 1115.600
23.00000 1073.700
23.10000 1027.700
23.20000 1045.000
23.30000 1258.800
23.40000 1164.900
23.50000 1177.800
23.60000 1150.700
23.70000 1396.000
23.80000 1937.300
23.90000 1828.700
24.00000 1233.300
24.10000 1062.900
24.20000 1143.500
24.30000 963.600
24.40000 1054.100
24.50000 867.500
24.60000 782.900
24.70000 805.800
24.80000 739.100
24.90000 788.500
25.00000 758.800
25.10000 733.200
25.20000 759.200
25.30000 726.200
25.40000 734.600
25.50000 776.400
25.60000 908.600
25.70000 863.900
25.80000 818.100
25.90000 943.400
26.00000 1343.400
26.10000 976.100
26.20000 701.900
26.30000 668.200
26.40000 691.100
26.50000 675.000
26.60000 651.900
26.70000 686.900
26.80000 733.000
26.90000 755.100
27.00000 683.800
27.10000 763.300
27.20000 863.100
27.30000 756.700
27.40000 749.000
27.50000 715.300
27.60000 632.400
27.70000 565.900
27.80000 553.400
27.90000 623.300
28.00000 563.900
28.10000 577.200
28.20000 549.300
28.30000 537.000
28.40000 566.300
28.50000 505.800
28.60000 521.700
28.70000 569.600
28.80000 574.700
28.90000 546.600
29.00000 545.000
29.10000 548.100
29.20000 561.700
29.30000 622.700
29.40000 655.000
29.50000 720.800
29.60000 848.100
29.70000 1670.400
29.80000 3603.200
29.90000 1439.000
30.00000 2613.300
30.10000 2038.400
30.20000 923.600
30.30000 693.500
30.40000 835.900
30.50000 659.400
30.60000 633.000
30.70000 614.000
30.80000 630.400
30.90000 685.400
31.00000 883.900
31.10000 1018.200
31.20000 1469.400
31.30000 1038.200
31.40000 676.600
31.50000 555.000
31.60000 511.900
31.70000 527.500
31.80000 502.400
31.90000 561.100
32.00000 711.300
32.10000 646.800
32.20000 770.800
32.30000 1154.200
32.40000 779.200
32.50000 788.400
32.60000 708.200
32.70000 606.700
32.80000 577.300
32.90000 568.600
33.00000 566.100
33.10000 649.100
33.20000 574.500
33.30000 526.900
33.40000 449.100
33.50000 455.300
33.60000 463.100
33.70000 444.100
33.80000 548.500
33.90000 447.700
34.00000 443.300
34.10000 409.100
34.20000 432.700
34.30000 419.700
34.40000 424.900
34.50000 445.400
34.60000 407.800
34.70000 454.100
34.80000 430.400
34.90000 465.200
35.00000 491.600
35.10000 464.000
35.20000 454.700
35.30000 457.200
35.40000 453.100
35.50000 370.200
35.60000 387.800
35.70000 391.500
35.80000 415.700
35.90000 364.000
36.00000 352.000
36.10000 443.500
36.20000 356.400
36.30000 382.100
36.40000 426.500
36.50000 423.400
36.60000 425.900
36.70000 467.400
36.80000 553.900
36.90000 465.500
37.00000 403.900
37.10000 370.300
37.20000 381.100
37.30000 396.500
37.40000 443.100
37.50000 406.700
37.60000 355.600
37.70000 430.900
37.80000 421.200
37.90000 342.500
38.00000 335.100
38.10000 402.300
38.20000 298.000
38.30000 394.500
38.40000 341.200
38.50000 373.200
38.60000 322.600
38.70000 282.400
38.80000 314.600
38.90000 307.700
39.00000 317.500
39.10000 302.800
39.20000 282.100
39.30000 272.500
39.40000 293.600
39.50000 369.400
39.60000 494.100
39.70000 494.500
39.80000 321.900
39.90000 315.100
40.00000 347.400
40.10000 296.300
40.20000 248.500
40.30000 272.400
40.40000 223.500
40.50000 220.500
40.60000 212.700
40.70000 229.000
40.80000 262.000
40.90000 269.900
41.00000 238.200
41.10000 222.500
41.20000 263.500
41.30000 247.500
41.40000 235.200
41.50000 224.200
41.60000 209.200
41.70000 218.200
41.80000 256.000
41.90000 241.500
42.00000 224.500
42.10000 241.900
42.20000 232.400
42.30000 211.800
42.40000 191.800
42.50000 197.100
42.60000 197.200
42.70000 188.200
42.80000 212.500
42.90000 263.300
43.00000 257.900
43.10000 257.200
43.20000 274.400
43.30000 387.800
43.40000 555.900
43.50000 288.000
43.60000 264.000
43.70000 240.800
43.80000 295.000
43.90000 317.100
44.00000 275.700
44.10000 313.800
44.20000 302.400
44.30000 218.700
44.40000 226.000
44.50000 235.800
44.60000 237.000
44.70000 271.200
44.80000 250.200
44.90000 198.000
45.00000 151.800
45.10000 191.400
45.20000 194.800
45.30000 196.600
45.40000 256.800
45.50000 400.400
45.60000 288.300
45.70000 255.100
45.80000 200.700
45.90000 192.900
46.00000 197.000
46.10000 189.000
46.20000 150.400
46.30000 141.000
46.40000 163.300
46.50000 144.600
46.60000 152.500
46.70000 129.300
46.80000 150.500
46.90000 157.400
47.00000 164.100
47.10000 206.500
47.20000 205.000
47.30000 184.700
47.40000 153.100
47.50000 162.700
47.60000 220.700
47.70000 178.100
47.80000 175.000
47.90000 198.500
48.00000 190.000
48.10000 223.400
48.20000 319.100
48.30000 308.700
48.40000 259.700
48.50000 298.000
48.60000 272.200
48.70000 397.900
48.80000 468.200
48.90000 330.200
49.00000 249.400
49.10000 239.400
49.20000 255.300
49.30000 251.800
49.40000 247.800
49.50000 213.400
49.60000 191.800
49.70000 216.400
49.80000 229.600
49.90000 248.500
50.00000 231.300
50.10000 179.000
50.20000 190.700
50.30000 159.500
50.40000 161.800
50.50000 147.300
50.60000 157.600
50.70000 168.400
50.80000 202.900
50.90000 231.800
51.00000 246.200
51.10000 164.200
51.20000 220.200
51.30000 238.900
51.40000 251.200
51.50000 252.800
51.60000 255.700
51.70000 260.100
51.80000 267.900
51.90000 312.300
52.00000 315.100
52.10000 330.200
52.20000 276.600
52.30000 285.900
52.40000 283.200
52.50000 232.700
52.60000 220.800
52.70000 219.800
52.80000 207.500
52.90000 197.600
53.00000 213.600
53.10000 194.800
53.20000 231.200
53.30000 274.100
53.40000 353.600
53.50000 322.000
53.60000 340.300
53.70000 380.700
53.80000 328.800
53.90000 327.500
54.00000 352.900
54.10000 538.900
54.20000 521.900
54.30000 391.300
54.40000 288.600
54.50000 230.600
54.60000 264.400
54.70000 252.900
54.80000 232.200
54.90000 209.200
55.00000 217.200
55.10000 199.500
55.20000 164.800
55.30000 191.200
55.40000 196.400
55.50000 181.200
55.60000 192.400
55.70000 168.500
55.80000 214.800
55.90000 185.100
56.00000 178.400
56.10000 168.500
56.20000 184.600
56.30000 207.700
56.40000 246.700
56.50000 206.100
56.60000 218.900
56.70000 195.000
56.80000 218.600
56.90000 251.400
57.00000 267.600
57.10000 245.100
57.20000 235.200
57.30000 193.200
57.40000 179.800
57.50000 160.700
57.60000 156.700
57.70000 170.800
57.80000 166.200
57.90000 162.100
58.00000 182.400
58.10000 164.000
58.20000 180.700
58.30000 184.200
58.40000 163.700
58.50000 225.000
58.60000 207.500
58.70000 192.100
58.80000 184.200
58.90000 176.200
59.00000 199.000
59.10000 243.700
59.20000 261.500
59.30000 289.200
59.40000 272.000
59.50000 262.100
59.60000 249.500
59.70000 282.900
59.80000 229.100
59.90000 277.800
60.00000 231.200
60.10000 275.000
60.20000 242.400
60.30000 231.500
60.40000 215.500
60.50000 203.500
60.60000 178.100
60.70000 185.300
60.80000 210.300
60.90000 211.700
61.00000 158.800
61.10000 172.500
61.20000 153.500
61.30000 166.400
61.40000 161.600
61.50000 161.400
61.60000 166.400
61.70000 157.600
61.80000 206.900
61.90000 182.100
62.00000 204.300
62.10000 192.600
62.20000 187.600
62.30000 177.200
62.40000 189.600
62.50000 173.400
62.60000 196.600
62.70000 188.400
62.80000 215.000
62.90000 182.300
63.00000 199.400
63.10000 183.000
63.20000 183.000
63.30000 195.000
63.40000 179.500
63.50000 192.400
63.60000 197.200
63.70000 221.800
63.80000 237.000
63.90000 217.200
64.00000 234.300
64.10000 224.200
64.20000 205.100
64.30000 184.700
64.40000 188.700
64.50000 193.900
64.60000 177.000
64.70000 170.300
64.80000 158.400
64.90000 156.800
65.00000 192.300
65.10000 203.100
65.20000 190.600
65.30000 248.400
65.40000 190.800
65.50000 164.300
65.60000 182.200
65.70000 193.800
65.80000 171.800
65.90000 141.600
66.00000 146.500
66.10000 182.200
66.20000 168.200
66.30000 145.200
66.40000 146.100
66.50000 143.700
66.60000 116.200
66.70000 123.400
66.80000 124.500
66.90000 129.100
67.00000 102.600
67.10000 129.300
67.20000 137.400
67.30000 132.900
67.40000 120.500
67.50000 134.100
67.60000 130.500
67.70000 130.000
67.80000 122.800
67.90000 134.700
68.00000 133.500
68.10000 140.800
68.20000 131.300
68.30000 129.000
68.40000 145.700
68.50000 150.100
68.60000 161.700
68.70000 169.800
68.80000 150.000
68.90000 149.000
69.00000 172.800
69.10000 174.600
69.20000 166.400
69.30000 135.500
69.40000 153.600
69.50000 163.700
69.60000 135.600
69.70000 130.500
69.80000 133.400
69.90000 122.800
70.00000 130.200
70.10000 151.600
70.20000 126.100
70.30000 111.000
70.40000 124.100
70.50000 123.400
70.60000 92.900
70.70000 141.000
70.80000 133.800
70.90000 123.300
71.00000 156.100
71.10000 146.000
71.20000 137.300
71.30000 141.800
71.40000 136.800
71.50000 141.200
71.60000 139.000
71.70000 122.300
71.80000 122.400
71.90000 112.700
72.00000 122.200
72.10000 122.000
72.20000 130.700
72.30000 129.300
72.40000 109.300
72.50000 98.800
72.60000 111.200
72.70000 108.900
72.80000 101.200
72.90000 111.100
73.00000 119.600
73.10000 104.100
73.20000 107.700
73.30000 113.400
73.40000 131.000
73.50000 127.700
73.60000 130.300
73.70000 135.000
73.80000 124.100
73.90000 116.600
74.00000 120.900
74.10000 128.100
74.20000 125.800
74.30000 101.600
74.40000 113.300
74.50000 133.200
74.60000 125.300
74.70000 142.700
74.80000 140.100
74.90000 145.200
75.00000 159.100
75.10000 164.600
75.20000 156.500
75.30000 115.600
75.40000 130.700
75.50000 109.900
75.60000 129.400
75.70000 135.700
75.80000 126.400
75.90000 123.800
76.00000 115.000
76.10000 96.400
76.20000 133.500
76.30000 111.700
76.40000 128.300
76.50000 129.900
76.60000 134.300
76.70000 128.500
76.80000 115.700
76.90000 122.100
77.00000 124.600
77.10000 116.400
77.20000 117.900
77.30000 105.700
77.40000 100.000
77.50000 117.600
77.60000 100.900
77.70000 110.100
77.80000 127.100
77.90000 104.500
78.00000 93.800
78.10000 110.800
78.20000 137.700
78.30000 123.600
78.40000 113.900
78.50000 131.500
78.60000 125.900
78.70000 125.400
78.80000 135.900
78.90000 146.800
79.00000 143.100
79.10000 120.100
79.20000 125.600
79.30000 126.900
79.40000 130.700
79.50000 112.400
79.60000 127.900
79.70000 121.300
79.80000 121.600
79.90000 125.500
80.00000 135.000
80.10000 116.100
80.20000 115.600
80.30000 141.300
80.40000 124.600
80.50000 111.900
80.60000 105.900
80.70000 115.900
80.80000 100.500
80.90000 115.700
81.00000 121.800
81.10000 106.800
81.20000 122.500
81.30000 116.900
81.40000 117.500
81.50000 127.400
81.60000 94.900
81.70000 129.100
81.80000 109.700
81.90000 98.000
82.00000 121.900
82.10000 103.600
82.20000 113.800
82.30000 106.300
82.40000 128.800
82.50000 104.200
82.60000 109.200
82.70000 87.300
82.80000 100.300
82.90000 99.700
83.00000 102.500
83.10000 95.000
83.20000 82.500
83.30000 106.800
83.40000 116.400
83.50000 95.200
83.60000 105.100
83.70000 85.900
83.80000 102.200
83.90000 112.700
84.00000 113.900
84.10000 125.000
84.20000 122.600
84.30000 92.800
84.40000 111.200
84.50000 107.600
84.60000 101.900
84.70000 118.000
84.80000 134.400
84.90000 126.200
85.00000 108.700
85.10000 121.900
85.20000 120.100
85.30000 135.900
85.40000 154.500
85.50000 142.800
85.60000 138.000
85.70000 141.200
85.80000 125.100
85.90000 149.300
86.00000 144.100
86.10000 158.500
86.20000 140.300
86.30000 133.900
86.40000 126.800
86.50000 137.000
86.60000 128.000
86.70000 143.100
86.80000 121.900
86.90000 114.800
87.00000 142.900
87.10000 135.500
87.20000 129.100
87.30000 140.000
87.40000 129.700
87.50000 134.800
87.60000 118.900
87.70000 137.100
87.80000 120.200
87.90000 146.300
88.00000 141.600
88.10000 131.700
88.20000 113.400
88.30000 138.000
88.40000 112.400
88.50000 124.800
88.60000 120.400
88.70000 138.400
88.80000 116.500
88.90000 112.900
89.00000 110.200
89.10000 104.900
89.20000 135.300
89.30000 125.700
89.40000 132.900
89.50000 131.000
89.60000 118.700
89.70000 123.600
89.80000 123.700
89.90000 157.300
90.00000 137.700
90.10000 132.600
90.20000 122.900
90.30000 100.000
90.40000 119.100
90.50000 128.300
90.60000 116.200
90.70000 114.900
90.80000 140.300
90.90000 113.100
91.00000 124.600
91.10000 105.100
91.20000 115.200
91.30000 114.300
91.40000 96.500
91.50000 102.800
91.60000 122.600
91.70000 115.500
91.80000 115.800
91.90000 107.700
92.00000 92.700
92.10000 105.300
92.20000 95.700
92.30000 121.900
92.40000 93.400
92.50000 107.400
92.60000 123.800
92.70000 116.800
92.80000 111.700
92.90000 127.200
93.00000 125.000
93.10000 113.700
93.20000 117.500
93.30000 110.300
93.40000 121.900
93.50000 113.100
93.60000 94.600
93.70000 132.400
93.80000 122.300
93.90000 129.300
94.00000 120.900
94.10000 116.300
94.20000 98.100
94.30000 110.300
94.40000 113.200
94.50000 106.100
94.60000 125.500
94.70000 112.000
94.80000 108.200
94.90000 100.600
95.00000 127.600
95.10000 99.000
95.20000 100.300
95.30000 116.500
95.40000 106.300
95.50000 115.200
95.60000 133.300
95.70000 110.200
95.80000 111.800
95.90000 140.600
96.00000 117.700
96.10000 108.800
96.20000 108.100
96.30000 116.300
96.40000 114.000
96.50000 87.800
96.60000 130.200
96.70000 116.000
96.80000 114.900
96.90000 128.800
97.00000 101.100
97.10000 109.300
97.20000 127.300
97.30000 130.300
97.40000 129.100
97.50000 136.400
97.60000 116.300
97.70000 139.500
97.80000 113.800
97.90000 126.400
98.00000 124.500
98.10000 126.400
98.20000 113.700
98.30000 127.700
98.40000 127.000
98.50000 113.800
98.60000 121.900
98.70000 147.100
98.80000 121.100
98.90000 145.200
99.00000 158.800
99.10000 143.700
99.20000 131.700
99.30000 152.400
99.40000 132.300
99.50000 112.700
99.60000 140.600
99.70000 112.500
99.80000 114.700
99.90000 127.100
100 113.500
100.1 114.600
100.2 124.300
100.3 115.600
100.4 126.200
100.5 121.400
100.6 139.200
100.7 113.500
100.8 124.600
100.9 132.000
101 102.500
101.1 124.500
101.2 145.200
101.3 123.000
101.4 125.500
101.5 130.100
101.6 129.700
101.7 148.500
101.8 130.200
101.9 134.700
102 137.300
102.1 138.700
102.2 121.600
102.3 127.100
102.4 132.500
102.5 123.900
102.6 117.900
102.7 130.200
102.8 115.200
102.9 136.200
103 152.300
103.1 129.200
103.2 136.600
103.3 128.600
103.4 141.200
103.5 133.700
103.6 122.800
103.7 129.800
103.8 124.600
103.9 123.500
104 121.900
104.1 102.100
104.2 117.000
104.3 122.300
104.4 118.300
104.5 99.800
104.6 116.000
104.7 131.700
104.8 105.700
104.9 124.400
105 111.100
105.1 116.500
105.2 120.100
105.3 113.700
105.4 107.100
105.5 120.500
105.6 127.600
105.7 122.500
105.8 117.000
105.9 115.000
106 109.800
106.1 96.000
106.2 115.200
106.3 104.200
106.4 117.000
106.5 117.300
106.6 126.500
106.7 87.600
106.8 109.200
106.9 110.200
107 104.600
107.1 104.900
107.2 119.200
107.3 109.300
107.4 115.300
107.5 109.700
107.6 91.400
107.7 119.500
107.8 115.900
107.9 97.300
108 111.900
108.1 113.900
108.2 102.200
108.3 103.900
108.4 120.700
108.5 111.400
108.6 122.500
108.7 106.500
108.8 102.800
108.9 110.200
109 96.300
109.1 110.200
109.2 96.300
109.3 117.900
109.4 108.700
109.5 100.100
109.6 92.900
109.7 97.900
109.8 116.700
109.9 128.300
110 115.200
110.1 114.000
110.2 123.400
110.3 112.700
110.4 110.200
110.5 95.600
110.6 103.600
110.7 102.900
110.8 99.800
110.9 125.300
111 118.800
111.1 108.400
111.2 105.800
111.3 110.200
111.4 100.200
111.5 119.400
111.6 121.700
111.7 85.800
111.8 100.200
111.9 119.700
112 112.400
112.1 101.700
112.2 119.800
112.3 107.900
112.4 106.900
112.5 111.700
112.6 106.100
112.7 113.600
112.8 120.200
112.9 95.700
113 113.500
113.1 104.500
113.2 109.000
113.3 123.500
113.4 121.200
113.5 114.500
113.6 99.400
113.7 132.200
113.8 127.700
113.9 100.200
114 96.500
114.1 97.300
114.2 122.500
114.3 130.400
114.4 128.600
114.5 98.200
114.6 121.200
114.7 114.400
114.8 97.500
114.9 124.700
115 116.200
115.1 108.300
115.2 97.100
115.3 106.500
115.4 106.300
115.5 112.300
115.6 113.800
115.7 100.400
115.8 98.400
115.9 111.900
116 113.900
116.1 116.800
116.2 110.800
116.3 101.000
116.4 98.800
116.5 93.200
116.6 97.500
116.7 94.600
116.8 95.300
116.9 91.900
117 99.700
117.1 95.400
117.2 111.700
117.3 121.700
117.4 102.000
117.5 104.300
117.6 97.700
117.7 96.100
117.8 94.300
117.9 102.100
118 120.600
118.1 106.500
118.2 125.200
118.3 90.800
118.4 109.700
118.5 90.000
118.6 119.000
118.7 107.000
118.8 109.400
118.9 114.000
119 96.200
119.1 104.300
119.2 91.900
119.3 115.500
119.4 109.500
119.5 101.300
119.6 104.100
119.7 107.400
119.8 100.600
119.9 98.400
120 121.800
120.1 117.400
120.2 104.400
120.3 80.100
120.4 111.600
120.5 104.500
120.6 103.000
120.7 103.000
120.8 89.600
120.9 114.600
121 107.500
121.1 101.300
121.2 107.200
121.3 105.100
121.4 109.300
121.5 99.600
121.6 104.600
121.7 105.600
121.8 118.400
121.9 115.700
122 110.200
122.1 92.100
122.2 95.900
122.3 114.500
122.4 117.200
122.5 107.900
122.6 112.800
122.7 109.700
122.8 128.000
122.9 99.900
123 112.400
123.1 102.400
123.2 94.400
123.3 93.500
123.4 105.800
123.5 114.000
123.6 90.300
123.7 112.900
123.8 106.000
123.9 113.900
124 111.500
124.1 94.200
124.2 99.600
124.3 119.000
124.4 96.500
124.5 108.900
124.6 113.800
124.7 106.800
124.8 108.300
124.9 120.200
125 105.600
125.1 107.300
125.2 116.100
125.3 91.500
125.4 108.000
125.5 97.800
125.6 103.900
125.7 114.100
125.8 102.400
125.9 106.700
126 113.400
126.1 107.200
126.2 111.500
126.3 132.700
126.4 94.500
126.5 99.200
126.6 116.200
126.7 104.500
126.8 106.600
126.9 105.700
127 108.500
127.1 96.200
127.2 130.800
127.3 100.400
127.4 117.100
127.5 103.600
127.6 103.700
127.7 113.100
127.8 110.500
127.9 114.100
128 91.400
128.1 122.900
128.2 110.800
128.3 102.500
128.4 112.600
128.5 86.600
128.6 118.800
128.7 130.400
128.8 108.700
128.9 123.000
129 107.800
129.1 107.800
129.2 113.200
129.3 105.500
129.4 101.900
129.5 99.000
129.6 108.200
129.7 96.800
129.8 106.900
129.9 109.200
130 102.800
130.1 101.700
130.2 97.500
130.3 112.100
130.4 121.400
130.5 115.400
130.6 95.200
130.7 109.100
130.8 118.600
130.9 114.600
131 110.900