File: Data/Materials_HUB_Synchrotron_XRD/Noh_Li3InCl6_400C_natural cooling_XRD.xy
10.00000 1934.800
10.08500 1756.900
10.17000 1774.900
10.25500 1884.100
10.34000 1763.500
10.42500 1654.900
10.51000 1666.400
10.59500 1674.500
10.68000 1643.800
10.76500 1578.700
10.85000 1568.300
10.93500 1508.700
11.02000 1505.100
11.10500 1417.900
11.19000 1468.500
11.27500 1406.200
11.36000 1446.000
11.44500 1400.900
11.53000 1282.200
11.61500 1283.100
11.70000 1203.600
11.78500 1347.100
11.87000 1233.500
11.95500 1262.200
12.04000 1235.600
12.12500 1146.900
12.21000 1223.400
12.29500 1270.400
12.38000 1300.900
12.46500 1201.900
12.55000 1064.200
12.63500 1151.200
12.72000 1060.100
12.80500 1090.800
12.89000 1143.800
12.97500 970.800
13.06000 1040.400
13.14500 1093.100
13.23000 1180.300
13.31500 1050.100
13.40000 1094.800
13.48500 1019.600
13.57000 1043.500
13.65500 930.100
13.74000 975.800
13.82500 977.600
13.91000 1053.400
13.99500 1056.900
14.08000 1037.300
14.16500 997.500
14.25000 1040.900
14.33500 1011.600
14.42000 1054.800
14.50500 1043.000
14.59000 1015.000
14.67500 1029.400
14.76000 3663.000
14.84500 1437.400
14.93000 1166.500
15.01500 1136.400
15.10000 1072.600
15.18500 1040.300
15.27000 1015.400
15.35500 1054.500
15.44000 1058.700
15.52500 1066.700
15.61000 1092.300
15.69500 1108.300
15.78000 1155.400
15.86500 1073.900
15.95000 1166.400
16.03500 3334.500
16.12000 1291.300
16.20500 1259.900
16.29000 1089.400
16.37500 1277.200
16.46000 1203.100
16.54500 1255.300
16.63000 1401.700
16.71500 1511.000
16.80000 1742.800
16.88500 1218.700
16.97000 1320.400
17.05500 1275.700
17.14000 1310.800
17.22500 1439.200
17.31000 1375.500
17.39500 1382.900
17.48000 1331.200
17.56500 1436.100
17.65000 1399.100
17.73500 1438.800
17.82000 1389.400
17.90500 1429.000
17.99000 1446.600
18.07500 1485.900
18.16000 1428.600
18.24500 1444.200
18.33000 1531.200
18.41500 1575.700
18.50000 1653.300
18.58500 1565.900
18.67000 1625.200
18.75500 1819.400
18.84000 1695.900
18.92500 1590.500
19.01000 1616.500
19.09500 1483.300
19.18000 1467.500
19.26500 1559.000
19.35000 1561.000
19.43500 1523.200
19.52000 1558.900
19.60500 1543.700
19.69000 1527.800
19.77500 1421.400
19.86000 1403.100
19.94500 1427.700
20.03000 1436.900
20.11500 1428.900
20.20000 1431.400
20.28500 1385.400
20.37000 1389.400
20.45500 1309.800
20.54000 1304.800
20.62500 1330.400
20.71000 1350.300
20.79500 1340.400
20.88000 1290.000
20.96500 1298.200
21.05000 1168.700
21.13500 1192.300
21.22000 1159.800
21.30500 1129.000
21.39000 1123.300
21.47500 1091.700
21.56000 1131.900
21.64500 1128.000
21.73000 1083.700
21.81500 1115.300
21.90000 1354.300
21.98500 983.000
22.07000 952.700
22.15500 922.200
22.24000 947.600
22.32500 906.800
22.41000 965.300
22.49500 905.600
22.58000 845.800
22.66500 817.000
22.75000 849.100
22.83500 791.100
22.92000 844.200
23.00500 786.500
23.09000 844.800
23.17500 792.400
23.26000 783.800
23.34500 766.100
23.43000 730.100
23.51500 766.700
23.60000 695.200
23.68500 705.000
23.77000 649.500
23.85500 625.900
23.94000 645.500
24.02500 655.500
24.11000 671.700
24.19500 653.900
24.28000 637.000
24.36500 647.700
24.45000 609.000
24.53500 557.700
24.62000 595.200
24.70500 590.700
24.79000 559.800
24.87500 579.400
24.96000 559.000
25.04500 542.400
25.13000 521.500
25.21500 486.200
25.30000 560.600
25.38500 528.100
25.47000 559.700
25.55500 681.300
25.64000 544.200
25.72500 544.400
25.81000 483.400
25.89500 504.200
25.98000 516.100
26.06500 458.000
26.15000 454.600
26.23500 500.300
26.32000 439.800
26.40500 429.200
26.49000 457.500
26.57500 437.400
26.66000 402.800
26.74500 459.800
26.83000 401.800
26.91500 387.800
27.00000 424.600
27.08500 393.700
27.17000 415.900
27.25500 387.600
27.34000 383.200
27.42500 407.600
27.51000 374.600
27.59500 383.800
27.68000 349.900
27.76500 404.200
27.85000 359.900
27.93500 385.900
28.02000 394.000
28.10500 370.200
28.19000 419.200
28.27500 408.400
28.36000 701.300
28.44500 554.600
28.53000 397.900
28.61500 353.700
28.70000 329.000
28.78500 374.600
28.87000 398.800
28.95500 359.800
29.04000 373.000
29.12500 339.600
29.21000 360.300
29.29500 342.500
29.38000 366.000
29.46500 386.600
29.55000 538.500
29.63500 513.800
29.72000 592.200
29.80500 719.800
29.89000 413.200
29.97500 338.700
30.06000 308.300
30.14500 352.600
30.23000 319.700
30.31500 282.400
30.40000 273.800
30.48500 304.100
30.57000 311.400
30.65500 263.000
30.74000 303.400
30.82500 264.800
30.91000 308.000
30.99500 299.400
31.08000 268.600
31.16500 313.700
31.25000 307.900
31.33500 270.600
31.42000 304.000
31.50500 268.100
31.59000 289.300
31.67500 244.000
31.76000 280.200
31.84500 286.300
31.93000 277.700
32.01500 286.300
32.10000 268.000
32.18500 301.900
32.27000 266.300
32.35500 327.500
32.44000 391.400
32.52500 287.700
32.61000 324.700
32.69500 373.200
32.78000 322.500
32.86500 266.200
32.95000 255.400
33.03500 282.300
33.12000 259.500
33.20500 283.600
33.29000 256.500
33.37500 296.500
33.46000 294.300
33.54500 279.200
33.63000 293.700
33.71500 268.300
33.80000 308.700
33.88500 319.100
33.97000 369.900
34.05500 680.900
34.14000 340.500
34.22500 322.200
34.31000 532.400
34.39500 1264.900
34.48000 2418.600
34.56500 1034.000
34.65000 464.600
34.73500 298.400
34.82000 287.500
34.90500 256.100
34.99000 234.400
35.07500 255.900
35.16000 247.300
35.24500 232.900
35.33000 225.500
35.41500 231.900
35.50000 216.600
35.58500 236.600
35.67000 220.400
35.75500 267.800
35.84000 257.100
35.92500 245.900
36.01000 226.500
36.09500 220.000
36.18000 190.000
36.26500 203.900
36.35000 181.500
36.43500 171.100
36.52000 181.100
36.60500 170.300
36.69000 174.400
36.77500 193.700
36.86000 173.900
36.94500 182.600
37.03000 181.400
37.11500 178.300
37.20000 149.300
37.28500 163.700
37.37000 157.500
37.45500 170.400
37.54000 186.200
37.62500 228.700
37.71000 276.500
37.79500 202.900
37.88000 171.500
37.96500 167.200
38.05000 172.100
38.13500 347.900
38.22000 180.800
38.30500 137.500
38.39000 157.500
38.47500 149.500
38.56000 161.100
38.64500 179.200
38.73000 529.100
38.81500 147.700
38.90000 156.500
38.98500 142.400
39.07000 135.500
39.15500 131.500
39.24000 120.500
39.32500 130.300
39.41000 132.500
39.49500 104.700
39.58000 123.000
39.66500 114.000
39.75000 114.600
39.83500 107.000
39.92000 99.700
40.00500 97.700
40.09000 111.900
40.17500 81.000
40.26000 105.400
40.34500 95.100
40.43000 96.300
40.51500 108.800
40.60000 121.000
40.68500 105.600
40.77000 103.500
40.85500 119.600
40.94000 104.100
41.02500 120.100
41.11000 111.800
41.19500 124.800
41.28000 220.100
41.36500 111.700
41.45000 109.700
41.53500 100.500
41.62000 91.500
41.70500 94.900
41.79000 80.700
41.87500 82.100
41.96000 102.300
42.04500 89.300
42.13000 92.700
42.21500 73.800
42.30000 109.500
42.38500 89.900
42.47000 103.300
42.55500 85.100
42.64000 86.800
42.72500 82.600
42.81000 82.500
42.89500 79.900
42.98000 80.600
43.06500 75.900
43.15000 87.700
43.23500 347.500
43.32000 133.900
43.40500 333.200
43.49000 143.600
43.57500 273.300
43.66000 204.400
43.74500 101.600
43.83000 96.700
43.91500 81.700
44.00000 79.700
44.08500 76.800
44.17000 79.900
44.25500 87.900
44.34000 82.700
44.42500 101.000
44.51000 241.700
44.59500 188.200
44.68000 116.700
44.76500 99.300
44.85000 85.200
44.93500 99.900
45.02000 88.800
45.10500 100.300
45.19000 553.900
45.27500 176.400
45.36000 381.400
45.44500 218.200
45.53000 104.100
45.61500 93.300
45.70000 85.300
45.78500 116.500
45.87000 270.200
45.95500 94.700
46.04000 114.700
46.12500 73.700
46.21000 75.100
46.29500 88.400
46.38000 67.300
46.46500 76.500
46.55000 72.100
46.63500 70.700
46.72000 83.800
46.80500 75.600
46.89000 73.600
46.97500 64.500
47.06000 78.100
47.14500 83.100
47.23000 66.300
47.31500 88.800
47.40000 56.500
47.48500 82.700
47.57000 62.700
47.65500 75.800
47.74000 68.600
47.82500 84.900
47.91000 97.200
47.99500 112.500
48.08000 234.900
48.16500 102.700
48.25000 249.900
48.33500 106.100
48.42000 113.400
48.50500 162.000
48.59000 87.600
48.67500 70.400
48.76000 66.700
48.84500 82.900
48.93000 76.000
49.01500 85.700
49.10000 66.900
49.18500 91.700
49.27000 145.300
49.35500 344.200
49.44000 857.800
49.52500 678.100
49.61000 1025.800
49.69500 1096.300
49.78000 234.100
49.86500 139.500
49.95000 98.600
50.03500 73.900
50.12000 70.100
50.20500 92.400
50.29000 64.200
50.37500 77.900
50.46000 98.500
50.54500 102.900
50.63000 90.700
50.71500 61.500
50.80000 69.500
50.88500 66.600
50.97000 65.900
51.05500 68.800
51.14000 48.500
51.22500 70.200
51.31000 66.500
51.39500 64.700
51.48000 63.800
51.56500 67.700
51.65000 62.700
51.73500 110.500
51.82000 222.200
51.90500 382.600
51.99000 140.800
52.07500 77.000
52.16000 65.000
52.24500 56.000
52.33000 55.600
52.41500 51.500
52.50000 90.200
52.58500 118.500
52.67000 66.200
52.75500 62.100
52.84000 58.300
52.92500 59.700
53.01000 60.500
53.09500 69.600
53.18000 59.000
53.26500 198.100
53.35000 84.000
53.43500 76.600
53.52000 146.700
53.60500 71.800
53.69000 213.300
53.77500 77.400
53.86000 70.000
53.94500 71.400
54.03000 66.200
54.11500 64.200
54.20000 50.100
54.28500 60.700
54.37000 58.100
54.45500 63.600
54.54000 39.900
54.62500 57.300
54.71000 47.300
54.79500 52.100
54.88000 50.800
54.96500 67.800
55.05000 71.000
55.13500 49.900
55.22000 45.900
55.30500 53.100
55.39000 55.900
55.47500 65.100
55.56000 53.800
55.64500 67.300
55.73000 58.000
55.81500 40.600
55.90000 50.500
55.98500 44.300
56.07000 53.500
56.15500 56.000
56.24000 46.900
56.32500 42.800
56.41000 47.000
56.49500 63.600
56.58000 51.400
56.66500 92.700
56.75000 67.200
56.83500 97.000
56.92000 88.200
57.00500 44.000
57.09000 62.300
57.17500 56.800
57.26000 55.100
57.34500 61.400
57.43000 50.000
57.51500 55.700
57.60000 64.400
57.68500 46.000
57.77000 52.900
57.85500 70.800
57.94000 142.100
58.02500 115.800
58.11000 72.100
58.19500 64.400
58.28000 54.300
58.36500 56.300
58.45000 47.500
58.53500 58.100
58.62000 67.000
58.70500 65.900
58.79000 127.200
58.87500 283.400
58.96000 83.300
59.04500 116.300
59.13000 58.200
59.21500 53.900
59.30000 54.000
59.38500 51.100
59.47000 46.100
59.55500 56.200
59.64000 58.100
59.72500 54.700
59.81000 54.700
59.89500 63.700
59.98000 66.400
60.06500 56.800
60.15000 71.100
60.23500 56.400
60.32000 159.900
60.40500 71.100
60.49000 148.100
60.57500 141.400
60.66000 133.100
60.74500 77.400
60.83000 64.900
60.91500 74.900
61.00000 59.400
61.08500 68.700
61.17000 119.500
61.25500 74.800
61.34000 166.500
61.42500 108.900
61.51000 128.400
61.59500 441.200
61.68000 498.300
61.76500 136.400
61.85000 119.100
61.93500 941.500
62.02000 152.600
62.10500 87.500
62.19000 79.200
62.27500 66.100
62.36000 75.600
62.44500 132.400
62.53000 111.900
62.61500 66.100
62.70000 62.900
62.78500 56.300
62.87000 54.800
62.95500 70.000
63.04000 51.600
63.12500 59.300
63.21000 52.700
63.29500 46.800
63.38000 59.800
63.46500 54.900
63.55000 58.900
63.63500 73.900
63.72000 60.100
63.80500 73.500
63.89000 103.700
63.97500 221.500
64.06000 137.700
64.14500 166.000
64.23000 100.200
64.31500 96.500
64.40000 74.300
64.48500 91.400
64.57000 64.800
64.65500 100.200
64.74000 72.500
64.82500 61.100
64.91000 52.200
64.99500 37.300
65.08000 58.000
65.16500 48.100
65.25000 44.600
65.33500 53.700
65.42000 56.300
65.50500 58.700
65.59000 56.400
65.67500 52.900
65.76000 50.600
65.84500 57.700
65.93000 47.100
66.01500 79.500
66.10000 54.600
66.18500 64.700
66.27000 74.400
66.35500 60.100
66.44000 58.600
66.52500 49.400
66.61000 68.700
66.69500 52.700
66.78000 51.600
66.86500 56.400
66.95000 33.400
67.03500 46.800
67.12000 35.700
67.20500 38.400
67.29000 52.900
67.37500 45.400
67.46000 51.200
67.54500 45.900
67.63000 45.900
67.71500 48.500
67.80000 58.800
67.88500 70.400
67.97000 143.200
68.05500 67.100
68.14000 53.000
68.22500 62.200
68.31000 64.900
68.39500 50.600
68.48000 60.900
68.56500 128.800
68.65000 79.600
68.73500 69.900
68.82000 90.600
68.90500 58.100
68.99000 105.200
69.07500 75.800
69.16000 90.500
69.24500 273.800
69.33000 107.000
69.41500 121.700
69.50000 91.400
69.58500 61.200
69.67000 49.800
69.75500 48.700
69.84000 70.600
69.92500 47.200
70.01000 50.400
70.09500 38.600
70.18000 56.900
70.26500 75.500
70.35000 43.100
70.43500 44.300
70.52000 49.500
70.60500 49.700
70.69000 49.300
70.77500 41.100
70.86000 43.000
70.94500 37.700
71.03000 49.300
71.11500 49.400
71.20000 60.400
71.28500 44.900
71.37000 54.600
71.45500 70.000
71.54000 57.600
71.62500 60.900
71.71000 70.500
71.79500 75.600
71.88000 59.400
71.96500 52.300
72.05000 43.800
72.13500 48.800
72.22000 52.400
72.30500 75.200
72.39000 212.100
72.47500 112.500
72.56000 97.600
72.64500 116.300
72.73000 298.300
72.81500 176.700
72.90000 73.900
72.98500 68.800
73.07000 56.100
73.15500 67.900
73.24000 57.000
73.32500 58.800
73.41000 52.900
73.49500 76.500
73.58000 73.500
73.66500 52.600
73.75000 67.000
73.83500 43.000
73.92000 41.800
74.00500 56.700
74.09000 48.500
74.17500 30.900
74.26000 49.000
74.34500 51.200
74.43000 42.200
74.51500 43.800
74.60000 55.800
74.68500 76.800
74.77000 75.200
74.85500 77.200
74.94000 94.100
75.02500 70.000
75.11000 77.200
75.19500 53.500
75.28000 51.600
75.36500 53.200
75.45000 56.000
75.53500 60.100
75.62000 69.600
75.70500 53.900
75.79000 85.100
75.87500 75.200
75.96000 64.800
76.04500 77.500
76.13000 48.700
76.21500 52.900
76.30000 54.900
76.38500 56.800
76.47000 46.700
76.55500 54.600
76.64000 45.200
76.72500 81.300
76.81000 63.400
76.89500 71.800
76.98000 74.900
77.06500 58.200
77.15000 47.700
77.23500 41.400
77.32000 45.500
77.40500 51.900
77.49000 39.800
77.57500 59.100
77.66000 48.700
77.74500 42.900
77.83000 40.800
77.91500 62.200
78.00000 49.800
78.08500 68.000
78.17000 67.000
78.25500 88.900
78.34000 90.800
78.42500 48.200
78.51000 61.700
78.59500 56.800
78.68000 81.700
78.76500 87.300
78.85000 57.000
78.93500 59.500
79.02000 46.400
79.10500 41.700
79.19000 51.200
79.27500 50.000
79.36000 46.400
79.44500 61.400
79.53000 75.000
79.61500 105.000
79.70000 99.900
79.78500 74.200
79.87000 52.300
79.95500 60.000
80.04000 103.400
80.12500 102.800
80.21000 105.300
80.29500 94.700
80.38000 83.800
80.46500 65.800
80.55000 62.400
80.63500 57.100
80.72000 51.200
80.80500 76.500
80.89000 49.600
80.97500 66.000
81.06000 42.200
81.14500 49.800
81.23000 48.200
81.31500 54.600
81.40000 50.000
81.48500 56.800
81.57000 65.100
81.65500 46.800
81.74000 63.800
81.82500 46.800
81.91000 52.800
81.99500 55.300
82.08000 72.500
82.16500 53.200
82.25000 62.400
82.33500 122.200
82.42000 79.100
82.50500 100.200
82.59000 275.700
82.67500 168.500
82.76000 180.500
82.84500 767.400
82.93000 400.700
83.01500 223.400
83.10000 483.000
83.18500 271.200
83.27000 272.300
83.35500 110.300
83.44000 77.900
83.52500 75.700
83.61000 82.300
83.69500 53.600
83.78000 75.000
83.86500 70.700
83.95000 69.500
84.03500 80.200
84.12000 62.100
84.20500 49.800
84.29000 49.900
84.37500 48.800
84.46000 76.300
84.54500 77.600
84.63000 91.800
84.71500 103.800
84.80000 90.500
84.88500 75.700
84.97000 95.900
85.05500 143.200
85.14000 80.600
85.22500 65.800
85.31000 67.900
85.39500 71.700
85.48000 66.600
85.56500 65.100
85.65000 61.000
85.73500 60.600
85.82000 36.700
85.90500 54.000
85.99000 53.800
86.07500 59.100
86.16000 54.600
86.24500 52.100
86.33000 53.300
86.41500 46.100
86.50000 56.400
86.58500 57.400
86.67000 62.500
86.75500 60.500
86.84000 89.300
86.92500 69.800
87.01000 57.500
87.09500 51.600
87.18000 59.500
87.26500 56.700
87.35000 52.500
87.43500 43.000
87.52000 45.600
87.60500 48.100
87.69000 59.400
87.77500 58.200
87.86000 46.700
87.94500 48.300
88.03000 43.900
88.11500 72.000
88.20000 53.700
88.28500 53.000
88.37000 50.200
88.45500 75.200
88.54000 61.800
88.62500 99.400
88.71000 61.900
88.79500 50.500
88.88000 62.300
88.96500 82.400
89.05000 72.900
89.13500 60.200
89.22000 67.900
89.30500 56.000
89.39000 66.700
89.47500 94.200
89.56000 118.300
89.64500 71.200
89.73000 84.100
89.81500 86.700
89.90000 161.500
89.98500 67.000
90.07000 67.100
90.15500 66.400
90.24000 64.400
90.32500 63.600
90.41000 62.200
90.49500 64.700
90.58000 66.900
90.66500 65.100
90.75000 52.800
90.83500 54.100
90.92000 52.200
91.00500 55.400
91.09000 40.100
91.17500 63.800
91.26000 61.600
91.34500 77.300
91.43000 48.700
91.51500 84.800
91.60000 65.300
91.68500 48.400
91.77000 77.000
91.85500 61.600
91.94000 68.700
92.02500 73.500
92.11000 58.300
92.19500 67.900
92.28000 85.300
92.36500 69.000
92.45000 66.900
92.53500 77.600
92.62000 90.700
92.70500 195.800
92.79000 196.800
92.87500 348.800
92.96000 240.200
93.04500 288.900
93.13000 198.300
93.21500 123.300
93.30000 112.900
93.38500 180.700
93.47000 217.700
93.55500 135.800
93.64000 87.700
93.72500 66.900
93.81000 58.100
93.89500 81.200
93.98000 53.900
94.06500 50.000
94.15000 65.900
94.23500 54.100
94.32000 63.600
94.40500 67.900
94.49000 52.200
94.57500 69.200
94.66000 92.700
94.74500 74.400
94.83000 106.500
94.91500 74.700
95.00000 44.200
95.08500 70.200
95.17000 74.300
95.25500 75.000
95.34000 88.900
95.42500 96.200
95.51000 52.700
95.59500 74.300
95.68000 72.900
95.76500 74.500
95.85000 68.800
95.93500 75.800
96.02000 87.300
96.10500 68.700
96.19000 49.700
96.27500 47.000
96.36000 44.600
96.44500 56.400
96.53000 47.900
96.61500 44.500
96.70000 99.800
96.78500 57.400
96.87000 56.900
96.95500 49.200
97.04000 59.700
97.12500 54.600
97.21000 44.000
97.29500 56.000
97.38000 61.000
97.46500 62.800
97.55000 69.900
97.63500 55.500
97.72000 48.800
97.80500 61.500
97.89000 38.200
97.97500 45.800
98.06000 51.900
98.14500 40.400
98.23000 59.200
98.31500 60.000
98.40000 65.900
98.48500 74.400
98.57000 66.200
98.65500 58.500
98.74000 62.600
98.82500 66.700
98.91000 42.300
98.99500 48.600
99.08000 56.000
99.16500 52.300
99.25000 47.500
99.33500 44.100
99.42000 41.500
99.50500 63.900
99.59000 48.700
99.67500 47.100
99.76000 54.500
99.84500 53.400
99.93000 114.200
100.015 88.100
100.1 48.800
100.185 76.100
100.27 137.700
100.355 94.600
100.44 128.000
100.525 76.200
100.61 57.100
100.695 60.300
100.78 67.100
100.865 58.700
100.95 43.500
101.035 54.300
101.12 42.500
101.205 50.100
101.29 43.900
101.375 47.900
101.46 65.000
101.545 49.000
101.63 58.000
101.715 50.800
101.8 57.300
101.885 53.100
101.97 58.100
102.055 82.600
102.14 78.800
102.225 61.200
102.31 40.700
102.395 53.400
102.48 73.200
102.565 58.400
102.65 88.300
102.735 69.400
102.82 88.600
102.905 61.500
102.99 62.200
103.075 60.100
103.16 46.900
103.245 62.100
103.33 48.400
103.415 50.500
103.5 66.100
103.585 56.800
103.67 57.100
103.755 63.400
103.84 60.200
103.925 44.500
104.01 54.800
104.095 47.800
104.18 54.500
104.265 66.300
104.35 68.300
104.435 59.600
104.52 55.000
104.605 67.000
104.69 50.100
104.775 62.100
104.86 87.200
104.945 66.500
105.03 79.500
105.115 70.300
105.2 85.600
105.285 65.900
105.37 87.800
105.455 73.100
105.54 51.600
105.625 60.600
105.71 90.900
105.795 68.800
105.88 50.400
105.965 46.800
106.05 41.600
106.135 49.500
106.22 49.900
106.305 37.200
106.39 54.900
106.475 58.300
106.56 44.800
106.645 51.000
106.73 45.100
106.815 45.700
106.9 45.500
106.985 38.200
107.07 43.700
107.155 39.600
107.24 62.100
107.325 47.500
107.41 48.400
107.495 52.900
107.58 43.900
107.665 25.900
107.75 57.300
107.835 37.100
107.92 36.000
108.005 46.800
108.09 42.400
108.175 47.400
108.26 31.300
108.345 48.300
108.43 46.400
108.515 49.700
108.6 57.500
108.685 41.900
108.77 54.100
108.855 51.500
108.94 53.100
109.025 53.200
109.11 60.500
109.195 64.900
109.28 69.300
109.365 70.100
109.45 56.100
109.535 59.000
109.62 71.500
109.705 69.000
109.79 65.000
109.875 68.000
109.96 51.700
110.045 53.600
110.13 46.800
110.215 57.600
110.3 64.300
110.385 57.800
110.47 56.700
110.555 49.600
110.64 37.600
110.725 50.900
110.81 56.400
110.895 52.700
110.98 60.300
111.065 54.800
111.15 53.900
111.235 42.400
111.32 44.400
111.405 36.600
111.49 48.200
111.575 49.900
111.66 48.500
111.745 55.000
111.83 44.900
111.915 36.600
112 46.400
112.085 41.700
112.17 63.700
112.255 46.100
112.34 65.900
112.425 44.800
112.51 41.900
112.595 53.100
112.68 39.800
112.765 54.400
112.85 69.400
112.935 54.000
113.02 49.100
113.105 62.300
113.19 55.200
113.275 73.300
113.36 118.100
113.445 90.100
113.53 76.200
113.615 75.700
113.7 77.400
113.785 58.200
113.87 120.500
113.955 136.700
114.04 71.200
114.125 69.800
114.21 58.800
114.295 83.200
114.38 82.000
114.465 58.600
114.55 66.500
114.635 50.000
114.72 49.300
114.805 55.900
114.89 61.400
114.975 48.400
115.06 71.600
115.145 55.000
115.23 63.600
115.315 80.500
115.4 61.200
115.485 51.000
115.57 68.100
115.655 78.100
115.74 65.000
115.825 60.800
115.91 55.500
115.995 74.000
116.08 79.100
116.165 90.000
116.25 93.000
116.335 79.900
116.42 73.600
116.505 88.100
116.59 95.600
116.675 68.900
116.76 59.700
116.845 69.400
116.93 78.400
117.015 70.000
117.1 67.900
117.185 55.800
117.27 62.400
117.355 53.700
117.44 48.100
117.525 68.700
117.61 50.700
117.695 49.200
117.78 65.200
117.865 46.300
117.95 61.600
118.035 70.700
118.12 55.600
118.205 62.800
118.29 50.300
118.375 60.800
118.46 45.700
118.545 50.000
118.63 51.300
118.715 53.600
118.8 49.100
118.885 62.700
118.97 46.900
119.055 42.900
119.14 54.100
119.225 33.000
119.31 47.000
119.395 50.600
119.48 36.800
119.565 41.000
119.65 54.900
119.735 72.500
119.82 47.500
119.905 58.000
119.99 49.400
120.075 60.100
120.16 55.800
120.245 50.500
120.33 57.100
120.415 61.600
120.5 58.200
120.585 56.000
120.67 61.800
120.755 59.000
120.84 45.000
120.925 56.300
121.01 60.400
121.095 51.000
121.18 73.500
121.265 65.000
121.35 56.400
121.435 74.600
121.52 59.200
121.605 52.400
121.69 50.600
121.775 65.300
121.86 66.300
121.945 76.700
122.03 53.100
122.115 80.500
122.2 55.500
122.285 60.700
122.37 53.400
122.455 62.000
122.54 60.500
122.625 56.800
122.71 62.800
122.795 76.100
122.88 50.000
122.965 53.000
123.05 51.300
123.135 55.000
123.22 40.400
123.305 47.100
123.39 51.500
123.475 53.100
123.56 58.300
123.645 40.500
123.73 45.400
123.815 48.500
123.9 49.900
123.985 51.900
124.07 57.300
124.155 73.900
124.24 58.900
124.325 63.700
124.41 74.600
124.495 68.700
124.58 69.900
124.665 80.900
124.75 94.200
124.835 113.200
124.92 146.500
125.005 178.700
125.09 152.100
125.175 188.400
125.26 130.300
125.345 91.400
125.43 106.700
125.515 98.000
125.6 113.200
125.685 124.200
125.77 95.000
125.855 106.700
125.94 106.900
126.025 88.200
126.11 79.700
126.195 62.800
126.28 89.600
126.365 73.900
126.45 68.500
126.535 70.200
126.62 54.300
126.705 77.800
126.79 44.400
126.875 67.200
126.96 47.200
127.045 58.200
127.13 60.500
127.215 51.500
127.3 48.900
127.385 54.900
127.47 76.300
127.555 77.800
127.64 67.800
127.725 59.000
127.81 41.300
127.895 61.900
127.98 43.300
128.065 61.400
128.15 48.000
128.235 56.300
128.32 55.100
128.405 59.900
128.49 79.000
128.575 63.600
128.66 51.100
128.745 41.800
128.83 46.000
128.915 57.600
129 51.500
129.085 45.400
129.17 50.100
129.255 56.400
129.34 54.200
129.425 50.700
129.51 39.200
129.595 42.900
129.68 36.200
129.765 54.800
129.85 56.500
129.935 39.000
130.02 48.900
130.105 58.500
130.19 64.200
130.275 55.600
130.36 45.700
130.445 41.200
130.53 56.300
130.615 56.500
130.7 50.100
130.785 41.700
130.87 54.900
130.955 57.600
131 66.900