File: Data/Materials_HUB_Synchrotron_XRD/Noh_LiYBr6_500C_natural cooling_XRD.xy
10.00000 1036.300
10.08500 918.900
10.17000 958.300
10.25500 868.100
10.34000 832.600
10.42500 780.800
10.51000 799.700
10.59500 786.900
10.68000 828.200
10.76500 717.700
10.85000 741.900
10.93500 755.000
11.02000 821.200
11.10500 736.200
11.19000 736.000
11.27500 673.300
11.36000 652.200
11.44500 656.200
11.53000 653.400
11.61500 596.100
11.70000 619.600
11.78500 659.000
11.87000 607.200
11.95500 632.600
12.04000 590.300
12.12500 612.800
12.21000 553.400
12.29500 541.400
12.38000 583.800
12.46500 483.900
12.55000 553.300
12.63500 511.100
12.72000 538.700
12.80500 575.700
12.89000 541.300
12.97500 505.300
13.06000 508.800
13.14500 536.000
13.23000 558.700
13.31500 429.800
13.40000 477.100
13.48500 533.600
13.57000 484.900
13.65500 509.000
13.74000 1234.400
13.82500 598.000
13.91000 473.400
13.99500 507.800
14.08000 507.700
14.16500 502.400
14.25000 551.800
14.33500 439.400
14.42000 512.200
14.50500 486.400
14.59000 470.400
14.67500 482.800
14.76000 557.200
14.84500 1225.500
14.93000 559.100
15.01500 569.600
15.10000 506.800
15.18500 566.900
15.27000 495.100
15.35500 600.300
15.44000 512.600
15.52500 1165.000
15.61000 627.500
15.69500 538.000
15.78000 573.200
15.86500 522.100
15.95000 579.300
16.03500 562.400
16.12000 521.900
16.20500 580.900
16.29000 508.600
16.37500 578.500
16.46000 536.100
16.54500 552.900
16.63000 573.800
16.71500 607.400
16.80000 662.500
16.88500 589.300
16.97000 556.900
17.05500 629.500
17.14000 643.300
17.22500 705.000
17.31000 601.100
17.39500 767.000
17.48000 761.900
17.56500 708.800
17.65000 652.500
17.73500 637.700
17.82000 681.300
17.90500 699.300
17.99000 610.100
18.07500 723.000
18.16000 735.300
18.24500 724.000
18.33000 722.700
18.41500 681.400
18.50000 657.500
18.58500 701.600
18.67000 735.700
18.75500 743.000
18.84000 723.800
18.92500 729.300
19.01000 706.400
19.09500 724.000
19.18000 708.200
19.26500 689.700
19.35000 728.300
19.43500 682.600
19.52000 644.200
19.60500 647.300
19.69000 742.600
19.77500 719.100
19.86000 712.500
19.94500 643.600
20.03000 712.800
20.11500 659.600
20.20000 710.000
20.28500 859.000
20.37000 686.800
20.45500 703.800
20.54000 575.900
20.62500 652.800
20.71000 647.800
20.79500 602.700
20.88000 598.100
20.96500 576.500
21.05000 585.100
21.13500 590.100
21.22000 528.700
21.30500 574.000
21.39000 544.900
21.47500 527.000
21.56000 512.000
21.64500 515.500
21.73000 513.800
21.81500 492.900
21.90000 489.600
21.98500 461.400
22.07000 466.000
22.15500 460.400
22.24000 476.100
22.32500 459.300
22.41000 434.300
22.49500 419.700
22.58000 449.000
22.66500 410.500
22.75000 399.900
22.83500 387.400
22.92000 376.700
23.00500 376.500
23.09000 427.600
23.17500 383.400
23.26000 378.800
23.34500 391.600
23.43000 390.600
23.51500 357.700
23.60000 318.300
23.68500 391.800
23.77000 404.400
23.85500 376.300
23.94000 331.000
24.02500 308.100
24.11000 297.400
24.19500 318.200
24.28000 300.400
24.36500 297.100
24.45000 299.900
24.53500 258.700
24.62000 270.900
24.70500 294.300
24.79000 267.900
24.87500 265.700
24.96000 272.500
25.04500 267.200
25.13000 283.900
25.21500 296.500
25.30000 263.000
25.38500 269.400
25.47000 231.100
25.55500 248.300
25.64000 230.100
25.72500 271.600
25.81000 248.100
25.89500 254.400
25.98000 226.800
26.06500 229.100
26.15000 223.200
26.23500 551.600
26.32000 281.800
26.40500 253.600
26.49000 227.400
26.57500 224.000
26.66000 244.800
26.74500 256.300
26.83000 226.100
26.91500 229.100
27.00000 253.900
27.08500 210.900
27.17000 227.100
27.25500 256.200
27.34000 314.200
27.42500 811.700
27.51000 2477.000
27.59500 371.500
27.68000 395.200
27.76500 4735.000
27.85000 304.800
27.93500 259.500
28.02000 220.900
28.10500 272.700
28.19000 416.600
28.27500 231.400
28.36000 237.500
28.44500 203.300
28.53000 197.800
28.61500 201.800
28.70000 198.800
28.78500 171.100
28.87000 201.800
28.95500 177.000
29.04000 196.100
29.12500 167.600
29.21000 180.000
29.29500 189.500
29.38000 188.600
29.46500 203.800
29.55000 197.300
29.63500 144.200
29.72000 209.900
29.80500 178.100
29.89000 196.200
29.97500 364.100
30.06000 165.600
30.14500 169.300
30.23000 183.100
30.31500 199.300
30.40000 179.500
30.48500 138.300
30.57000 187.400
30.65500 177.400
30.74000 159.500
30.82500 167.500
30.91000 181.400
30.99500 158.700
31.08000 184.600
31.16500 179.300
31.25000 146.400
31.33500 195.600
31.42000 234.300
31.50500 194.400
31.59000 219.200
31.67500 239.500
31.76000 329.600
31.84500 2197.100
31.93000 6038.700
32.01500 782.500
32.10000 277.400
32.18500 207.900
32.27000 172.600
32.35500 206.300
32.44000 192.900
32.52500 172.900
32.61000 227.300
32.69500 227.200
32.78000 164.800
32.86500 159.200
32.95000 189.000
33.03500 163.500
33.12000 403.700
33.20500 140.400
33.29000 149.000
33.37500 149.000
33.46000 144.700
33.54500 138.400
33.63000 135.600
33.71500 137.500
33.80000 138.300
33.88500 154.700
33.97000 136.800
34.05500 141.100
34.14000 138.000
34.22500 119.700
34.31000 146.100
34.39500 109.400
34.48000 143.800
34.56500 138.900
34.65000 127.500
34.73500 104.300
34.82000 126.300
34.90500 277.300
34.99000 122.000
35.07500 131.700
35.16000 142.400
35.24500 124.000
35.33000 303.500
35.41500 140.600
35.50000 144.700
35.58500 142.400
35.67000 121.300
35.75500 108.700
35.84000 137.200
35.92500 280.700
36.01000 132.400
36.09500 110.000
36.18000 98.100
36.26500 111.500
36.35000 111.400
36.43500 102.400
36.52000 93.100
36.60500 101.800
36.69000 105.000
36.77500 108.600
36.86000 106.800
36.94500 112.300
37.03000 111.200
37.11500 95.200
37.20000 108.700
37.28500 89.300
37.37000 98.800
37.45500 83.300
37.54000 97.900
37.62500 71.700
37.71000 83.500
37.79500 90.500
37.88000 87.400
37.96500 100.000
38.05000 93.500
38.13500 136.200
38.22000 95.900
38.30500 88.200
38.39000 68.500
38.47500 72.900
38.56000 80.200
38.64500 73.500
38.73000 72.600
38.81500 78.800
38.90000 70.100
38.98500 69.300
39.07000 61.200
39.15500 69.600
39.24000 77.900
39.32500 82.300
39.41000 60.600
39.49500 79.600
39.58000 87.300
39.66500 64.000
39.75000 57.900
39.83500 72.300
39.92000 178.800
40.00500 75.000
40.09000 76.300
40.17500 82.500
40.26000 234.400
40.34500 128.500
40.43000 88.800
40.51500 82.200
40.60000 76.600
40.68500 64.900
40.77000 74.500
40.85500 69.800
40.94000 67.400
41.02500 73.100
41.11000 252.500
41.19500 101.800
41.28000 100.300
41.36500 67.400
41.45000 69.600
41.53500 77.900
41.62000 77.600
41.70500 60.100
41.79000 78.300
41.87500 107.500
41.96000 152.800
42.04500 200.100
42.13000 72.600
42.21500 62.400
42.30000 56.700
42.38500 119.300
42.47000 180.300
42.55500 64.000
42.64000 71.400
42.72500 59.300
42.81000 66.600
42.89500 53.400
42.98000 58.100
43.06500 56.800
43.15000 57.500
43.23500 49.600
43.32000 61.100
43.40500 63.500
43.49000 72.700
43.57500 70.200
43.66000 67.200
43.74500 73.900
43.83000 41.200
43.91500 57.800
44.00000 50.900
44.08500 63.400
44.17000 71.800
44.25500 78.200
44.34000 99.800
44.42500 79.800
44.51000 67.000
44.59500 64.900
44.68000 91.500
44.76500 96.900
44.85000 76.700
44.93500 117.000
45.02000 75.800
45.10500 74.500
45.19000 79.000
45.27500 91.400
45.36000 98.000
45.44500 137.500
45.53000 573.900
45.61500 1382.500
45.70000 323.900
45.78500 205.100
45.87000 459.400
45.95500 3073.700
46.04000 289.400
46.12500 119.400
46.21000 85.800
46.29500 87.300
46.38000 80.600
46.46500 84.800
46.55000 50.500
46.63500 118.600
46.72000 99.500
46.80500 105.400
46.89000 118.200
46.97500 60.900
47.06000 65.700
47.14500 62.800
47.23000 59.200
47.31500 55.800
47.40000 57.600
47.48500 73.800
47.57000 69.500
47.65500 52.800
47.74000 66.700
47.82500 195.800
47.91000 222.900
47.99500 48.900
48.08000 55.200
48.16500 47.800
48.25000 57.100
48.33500 61.000
48.42000 48.100
48.50500 61.500
48.59000 127.100
48.67500 52.400
48.76000 46.300
48.84500 43.100
48.93000 57.300
49.01500 51.100
49.10000 39.200
49.18500 50.400
49.27000 76.200
49.35500 77.200
49.44000 70.600
49.52500 62.500
49.61000 40.300
49.69500 100.600
49.78000 56.000
49.86500 59.400
49.95000 54.600
50.03500 46.100
50.12000 41.300
50.20500 54.500
50.29000 44.300
50.37500 56.600
50.46000 51.700
50.54500 29.800
50.63000 52.000
50.71500 48.200
50.80000 45.300
50.88500 40.400
50.97000 41.000
51.05500 48.800
51.14000 45.700
51.22500 33.200
51.31000 42.500
51.39500 38.600
51.48000 38.300
51.56500 42.600
51.65000 47.600
51.73500 60.600
51.82000 49.100
51.90500 45.100
51.99000 55.400
52.07500 49.800
52.16000 44.300
52.24500 53.800
52.33000 58.800
52.41500 72.700
52.50000 66.700
52.58500 84.200
52.67000 57.900
52.75500 47.400
52.84000 66.000
52.92500 57.700
53.01000 51.600
53.09500 59.400
53.18000 61.500
53.26500 55.800
53.35000 79.400
53.43500 72.500
53.52000 69.900
53.60500 68.700
53.69000 65.900
53.77500 65.000
53.86000 72.400
53.94500 217.500
54.03000 254.300
54.11500 1213.300
54.20000 726.500
54.28500 586.000
54.37000 157.600
54.45500 539.400
54.54000 1108.200
54.62500 129.000
54.71000 75.600
54.79500 86.200
54.88000 55.200
54.96500 41.600
55.05000 67.600
55.13500 54.100
55.22000 61.100
55.30500 56.300
55.39000 76.200
55.47500 99.900
55.56000 122.500
55.64500 95.500
55.73000 102.200
55.81500 122.700
55.90000 59.000
55.98500 68.100
56.07000 75.400
56.15500 68.100
56.24000 64.600
56.32500 82.400
56.41000 80.800
56.49500 65.700
56.58000 109.000
56.66500 323.400
56.75000 1665.500
56.83500 155.900
56.92000 73.800
57.00500 84.200
57.09000 80.400
57.17500 79.300
57.26000 171.900
57.34500 580.200
57.43000 101.600
57.51500 82.800
57.60000 60.400
57.68500 51.800
57.77000 54.900
57.85500 60.600
57.94000 60.500
58.02500 54.100
58.11000 60.000
58.19500 70.200
58.28000 83.600
58.36500 40.200
58.45000 58.500
58.53500 42.600
58.62000 49.300
58.70500 61.300
58.79000 58.800
58.87500 49.100
58.96000 68.000
59.04500 115.200
59.13000 163.400
59.21500 51.500
59.30000 53.800
59.38500 57.200
59.47000 58.000
59.55500 82.600
59.64000 47.600
59.72500 61.100
59.81000 48.800
59.89500 41.400
59.98000 42.300
60.06500 39.400
60.15000 53.000
60.23500 48.700
60.32000 39.000
60.40500 52.800
60.49000 48.000
60.57500 42.400
60.66000 35.300
60.74500 46.800
60.83000 48.500
60.91500 78.800
61.00000 43.100
61.08500 40.100
61.17000 43.400
61.25500 50.200
61.34000 69.200
61.42500 56.700
61.51000 52.500
61.59500 43.100
61.68000 32.500
61.76500 43.000
61.85000 42.900
61.93500 40.000
62.02000 37.400
62.10500 42.900
62.19000 35.700
62.27500 70.900
62.36000 49.200
62.44500 50.700
62.53000 48.300
62.61500 50.400
62.70000 38.700
62.78500 45.200
62.87000 43.100
62.95500 59.800
63.04000 47.000
63.12500 63.500
63.21000 71.100
63.29500 59.600
63.38000 50.000
63.46500 62.900
63.55000 52.300
63.63500 44.500
63.72000 116.200
63.80500 48.600
63.89000 71.700
63.97500 34.900
64.06000 29.200
64.14500 53.800
64.23000 38.400
64.31500 37.700
64.40000 39.600
64.48500 38.500
64.57000 46.900
64.65500 39.700
64.74000 45.700
64.82500 36.800
64.91000 34.300
64.99500 43.200
65.08000 45.300
65.16500 50.000
65.25000 37.900
65.33500 50.100
65.42000 45.300
65.50500 48.400
65.59000 47.100
65.67500 44.900
65.76000 50.700
65.84500 86.400
65.93000 58.300
66.01500 64.900
66.10000 46.100
66.18500 50.900
66.27000 59.500
66.35500 67.100
66.44000 75.400
66.52500 132.100
66.61000 272.300
66.69500 278.700
66.78000 863.900
66.86500 131.600
66.95000 77.500
67.03500 58.200
67.12000 59.300
67.20500 57.300
67.29000 60.500
67.37500 52.000
67.46000 44.700
67.54500 46.800
67.63000 58.700
67.71500 70.000
67.80000 43.800
67.88500 41.300
67.97000 41.300
68.05500 60.300
68.14000 49.800
68.22500 51.700
68.31000 42.600
68.39500 39.700
68.48000 51.900
68.56500 73.000
68.65000 69.200
68.73500 65.400
68.82000 55.300
68.90500 49.900
68.99000 39.200
69.07500 36.700
69.16000 53.300
69.24500 53.800
69.33000 56.000
69.41500 45.200
69.50000 71.500
69.58500 42.700
69.67000 52.400
69.75500 50.500
69.84000 53.500
69.92500 42.000
70.01000 51.500
70.09500 56.600
70.18000 56.100
70.26500 74.500
70.35000 60.100
70.43500 50.200
70.52000 42.200
70.60500 57.000
70.69000 47.900
70.77500 43.400
70.86000 61.800
70.94500 52.200
71.03000 43.600
71.11500 61.200
71.20000 58.600
71.28500 51.000
71.37000 45.900
71.45500 66.200
71.54000 54.400
71.62500 46.700
71.71000 58.300
71.79500 69.800
71.88000 57.400
71.96500 62.400
72.05000 59.700
72.13500 73.600
72.22000 71.300
72.30500 44.100
72.39000 58.900
72.47500 48.700
72.56000 58.600
72.64500 62.700
72.73000 62.500
72.81500 68.900
72.90000 63.500
72.98500 60.300
73.07000 65.500
73.15500 73.900
73.24000 149.300
73.32500 504.000
73.41000 354.900
73.49500 87.600
73.58000 95.300
73.66500 270.300
73.75000 225.700
73.83500 115.100
73.92000 68.100
74.00500 124.800
74.09000 382.800
74.17500 230.300
74.26000 78.600
74.34500 78.900
74.43000 59.600
74.51500 62.800
74.60000 73.000
74.68500 83.600
74.77000 46.200
74.85500 65.900
74.94000 64.200
75.02500 70.100
75.11000 73.700
75.19500 72.300
75.28000 85.600
75.36500 106.700
75.45000 200.200
75.53500 407.000
75.62000 639.800
75.70500 715.600
75.79000 175.200
75.87500 132.600
75.96000 216.300
76.04500 452.500
76.13000 770.100
76.21500 651.900
76.30000 134.400
76.38500 105.900
76.47000 95.900
76.55500 74.200
76.64000 71.900
76.72500 64.400
76.81000 71.300
76.89500 71.500
76.98000 75.100
77.06500 92.000
77.15000 54.500
77.23500 76.500
77.32000 69.900
77.40500 79.600
77.49000 66.600
77.57500 95.200
77.66000 81.600
77.74500 108.000
77.83000 80.500
77.91500 92.300
78.00000 83.800
78.08500 66.000
78.17000 68.700
78.25500 58.300
78.34000 68.700
78.42500 57.900
78.51000 49.900
78.59500 72.000
78.68000 53.400
78.76500 38.900
78.85000 73.600
78.93500 62.800
79.02000 54.400
79.10500 58.600
79.19000 52.300
79.27500 68.800
79.36000 44.100
79.44500 55.900
79.53000 75.900
79.61500 64.000
79.70000 52.300
79.78500 62.000
79.87000 47.000
79.95500 50.300
80.04000 61.500
80.12500 50.000
80.21000 62.100
80.29500 57.700
80.38000 50.300
80.46500 62.700
80.55000 60.900
80.63500 44.000
80.72000 68.900
80.80500 61.500
80.89000 43.300
80.97500 64.900
81.06000 48.900
81.14500 67.000
81.23000 57.900
81.31500 39.800
81.40000 49.300
81.48500 71.700
81.57000 76.200
81.65500 102.000
81.74000 72.500
81.82500 107.300
81.91000 94.600
81.99500 76.100
82.08000 63.100
82.16500 70.200
82.25000 62.300
82.33500 50.400
82.42000 55.700
82.50500 77.700
82.59000 47.200
82.67500 57.400
82.76000 68.800
82.84500 52.600
82.93000 62.000
83.01500 43.100
83.10000 53.800
83.18500 52.500
83.27000 61.000
83.35500 53.500
83.44000 56.100
83.52500 67.400
83.61000 56.300
83.69500 70.200
83.78000 76.700
83.86500 68.800
83.95000 79.700
84.03500 58.100
84.12000 98.000
84.20500 231.600
84.29000 208.800
84.37500 389.500
84.46000 431.500
84.54500 496.300
84.63000 440.900
84.71500 112.600
84.80000 80.600
84.88500 70.400
84.97000 85.900
85.05500 94.800
85.14000 121.000
85.22500 194.300
85.31000 458.200
85.39500 161.800
85.48000 68.200
85.56500 64.800
85.65000 72.700
85.73500 68.100
85.82000 79.000
85.90500 71.400
85.99000 87.400
86.07500 82.900
86.16000 61.400
86.24500 57.700
86.33000 58.300
86.41500 69.000
86.50000 69.600
86.58500 55.500
86.67000 64.800
86.75500 56.400
86.84000 51.700
86.92500 60.200
87.01000 63.100
87.09500 73.100
87.18000 69.800
87.26500 73.700
87.35000 71.000
87.43500 41.800
87.52000 60.900
87.60500 56.900
87.69000 55.500
87.77500 65.200
87.86000 55.400
87.94500 48.100
88.03000 66.700
88.11500 44.000
88.20000 55.200
88.28500 45.200
88.37000 44.100
88.45500 49.700
88.54000 47.000
88.62500 58.700
88.71000 59.300
88.79500 40.800
88.88000 44.000
88.96500 47.500
89.05000 56.300
89.13500 64.800
89.22000 58.600
89.30500 63.000
89.39000 59.900
89.47500 59.300
89.56000 43.500
89.64500 66.100
89.73000 54.700
89.81500 46.500
89.90000 53.300
89.98500 47.500
90.07000 49.300
90.15500 64.400
90.24000 55.400
90.32500 53.000
90.41000 50.400
90.49500 58.400
90.58000 49.300
90.66500 98.800
90.75000 85.900
90.83500 133.700
90.92000 262.000
91.00500 220.100
91.09000 176.600
91.17500 153.900
91.26000 196.100
91.34500 129.100
91.43000 78.700
91.51500 89.800
91.60000 150.000
91.68500 70.600
91.77000 55.900
91.85500 55.400
91.94000 65.100
92.02500 108.600
92.11000 56.700
92.19500 49.400
92.28000 62.200
92.36500 49.500
92.45000 52.300
92.53500 51.200
92.62000 46.700
92.70500 58.300
92.79000 48.400
92.87500 64.600
92.96000 48.700
93.04500 50.500
93.13000 53.700
93.21500 46.700
93.30000 46.600
93.38500 51.100
93.47000 67.000
93.55500 44.300
93.64000 56.300
93.72500 60.000
93.81000 48.100
93.89500 58.000
93.98000 58.700
94.06500 50.100
94.15000 58.700
94.23500 44.800
94.32000 62.500
94.40500 47.800
94.49000 66.700
94.57500 34.700
94.66000 36.000
94.74500 48.400
94.83000 73.300
94.91500 62.900
95.00000 58.200
95.08500 87.400
95.17000 55.200
95.25500 58.300
95.34000 40.900
95.42500 52.900
95.51000 47.400
95.59500 51.700
95.68000 51.700
95.76500 45.600
95.85000 36.900
95.93500 45.200
96.02000 39.400
96.10500 46.100
96.19000 42.200
96.27500 42.700
96.36000 42.600
96.44500 55.800
96.53000 33.400
96.61500 50.800
96.70000 34.700
96.78500 31.800
96.87000 38.900
96.95500 29.700
97.04000 53.100
97.12500 60.900
97.21000 35.000
97.29500 49.400
97.38000 41.100
97.46500 45.200
97.55000 36.300
97.63500 34.000
97.72000 34.700
97.80500 43.100
97.89000 42.000
97.97500 55.900
98.06000 39.400
98.14500 43.400
98.23000 42.500
98.31500 40.500
98.40000 47.400
98.48500 38.600
98.57000 42.100
98.65500 53.100
98.74000 51.600
98.82500 44.000
98.91000 43.900
98.99500 62.900
99.08000 45.500
99.16500 50.000
99.25000 43.500
99.33500 49.100
99.42000 43.200
99.50500 42.400
99.59000 47.700
99.67500 48.600
99.76000 43.700
99.84500 41.800
99.93000 48.400
100.015 54.300
100.1 42.500
100.185 41.000
100.27 42.100
100.355 43.400
100.44 58.200
100.525 37.600
100.61 47.000
100.695 54.500
100.78 42.500
100.865 55.200
100.95 56.700
101.035 50.000
101.12 49.800
101.205 50.500
101.29 53.400
101.375 63.300
101.46 109.300
101.545 173.700
101.63 78.800
101.715 127.300
101.8 64.300
101.885 58.000
101.97 55.100
102.055 58.200
102.14 58.600
102.225 39.500
102.31 61.200
102.395 70.000
102.48 105.500
102.565 198.400
102.65 115.500
102.735 102.900
102.82 62.300
102.905 57.200
102.99 58.800
103.075 50.700
103.16 57.200
103.245 58.600
103.33 43.600
103.415 60.200
103.5 46.700
103.585 45.400
103.67 45.900
103.755 52.000
103.84 53.900
103.925 54.500
104.01 44.400
104.095 44.300
104.18 53.600
104.265 44.200
104.35 47.800
104.435 62.000
104.52 65.300
104.605 60.400
104.69 76.100
104.775 65.800
104.86 60.400
104.945 35.400
105.03 43.800
105.115 49.600
105.2 59.400
105.285 50.500
105.37 62.700
105.455 53.300
105.54 48.700
105.625 39.000
105.71 60.900
105.795 46.300
105.88 42.600
105.965 57.500
106.05 34.700
106.135 44.600
106.22 50.000
106.305 50.000
106.39 63.500
106.475 53.900
106.56 75.200
106.645 49.700
106.73 47.600
106.815 58.600
106.9 37.800
106.985 47.400
107.07 52.500
107.155 43.500
107.24 62.100
107.325 51.600
107.41 49.400
107.495 52.600
107.58 72.600
107.665 68.500
107.75 58.000
107.835 59.000
107.92 50.700
108.005 69.900
108.09 111.800
108.175 76.300
108.26 126.100
108.345 138.400
108.43 143.200
108.515 104.700
108.6 98.900
108.685 68.500
108.77 67.100
108.855 90.800
108.94 113.100
109.025 98.700
109.11 126.600
109.195 102.500
109.28 69.900
109.365 79.200
109.45 89.800
109.535 89.000
109.62 139.600
109.705 101.400
109.79 71.600
109.875 68.200
109.96 69.500
110.045 52.400
110.13 55.000
110.215 53.200
110.3 63.700
110.385 70.400
110.47 128.900
110.555 271.500
110.64 179.800
110.725 206.600
110.81 149.200
110.895 121.200
110.98 96.000
111.065 162.100
111.15 193.200
111.235 170.100
111.32 139.500
111.405 91.700
111.49 61.700
111.575 59.200
111.66 63.000
111.745 63.600
111.83 59.300
111.915 56.000
112 78.800
112.085 113.400
112.17 145.900
112.255 132.200
112.34 89.300
112.425 68.600
112.51 60.100
112.595 65.700
112.68 57.800
112.765 63.900
112.85 64.400
112.935 61.000
113.02 46.200
113.105 55.300
113.19 49.900
113.275 41.800
113.36 53.700
113.445 51.900
113.53 55.900
113.615 37.400
113.7 45.100
113.785 50.400
113.87 46.600
113.955 60.400
114.04 47.800
114.125 39.200
114.21 45.100
114.295 44.900
114.38 52.300
114.465 54.000
114.55 62.900
114.635 57.800
114.72 61.900
114.805 58.400
114.89 68.400
114.975 74.800
115.06 59.500
115.145 48.500
115.23 59.100
115.315 55.500
115.4 57.000
115.485 53.800
115.57 52.000
115.655 60.200
115.74 50.600
115.825 47.400
115.91 59.600
115.995 60.600
116.08 72.000
116.165 69.700
116.25 57.500
116.335 52.500
116.42 57.500
116.505 49.800
116.59 49.800
116.675 55.700
116.76 58.200
116.845 65.600
116.93 67.000
117.015 51.300
117.1 70.100
117.185 77.700
117.27 51.900
117.355 50.900
117.44 73.300
117.525 49.100
117.61 60.800
117.695 45.400
117.78 52.700
117.865 63.200
117.95 48.200
118.035 50.200
118.12 40.400
118.205 39.900
118.29 50.900
118.375 53.500
118.46 55.800
118.545 59.000
118.63 56.400
118.715 57.600
118.8 68.300
118.885 67.800
118.97 52.400
119.055 67.600
119.14 66.000
119.225 53.200
119.31 53.300
119.395 44.700
119.48 67.000
119.565 54.200
119.65 46.900
119.735 70.200
119.82 58.100
119.905 67.600
119.99 94.500
120.075 97.300
120.16 77.900
120.245 64.500
120.33 86.300
120.415 130.000
120.5 177.000
120.585 137.400
120.67 99.000
120.755 97.700
120.84 109.900
120.925 108.500
121.01 82.600
121.095 77.400
121.18 104.900
121.265 109.600
121.35 186.300
121.435 126.600
121.52 69.000
121.605 71.100
121.69 64.700
121.775 51.000
121.86 52.800
121.945 63.100
122.03 49.500
122.115 57.100
122.2 39.400
122.285 33.100
122.37 38.500
122.455 56.100
122.54 47.700
122.625 51.400
122.71 46.400
122.795 53.000
122.88 54.100
122.965 59.200
123.05 57.600
123.135 53.500
123.22 41.500
123.305 45.500
123.39 59.700
123.475 58.500
123.56 61.000
123.645 58.200
123.73 65.100
123.815 56.100
123.9 53.700
123.985 61.600
124.07 57.000
124.155 61.800
124.24 46.500
124.325 48.300
124.41 48.200
124.495 45.000
124.58 45.300
124.665 57.200
124.75 56.700
124.835 51.200
124.92 64.300
125.005 58.600
125.09 44.200
125.175 61.700
125.26 53.400
125.345 53.700
125.43 45.100
125.515 55.900
125.6 74.000
125.685 60.800
125.77 49.300
125.855 64.600
125.94 41.600
126.025 58.600
126.11 52.500
126.195 50.600
126.28 44.700
126.365 51.900
126.45 54.000
126.535 38.800
126.62 58.200
126.705 44.700
126.79 50.200
126.875 57.200
126.96 51.100
127.045 54.600
127.13 50.700
127.215 57.900
127.3 47.700
127.385 43.800
127.47 52.800
127.555 58.600
127.64 53.400
127.725 83.900
127.81 69.100
127.895 76.400
127.98 97.500
128.065 58.900
128.15 73.300
128.235 98.600
128.32 111.900
128.405 98.200
128.49 83.300
128.575 66.300
128.66 48.400
128.745 61.700
128.83 40.800
128.915 57.900
129 50.600
129.085 54.500
129.17 51.500
129.255 49.400
129.34 52.700
129.425 61.700
129.51 52.400
129.595 54.700
129.68 45.800
129.765 60.700
129.85 58.400
129.935 61.300
130.02 55.000
130.105 61.800
130.19 63.100
130.275 88.200
130.36 91.300
130.445 80.300
130.53 73.500
130.615 70.800
130.7 76.400
130.785 82.200
130.87 130.800
130.955 130.500
131 104.300