File: Data/Materials_HUB_Synchrotron_XRD/shinj_1_1_XRD.xy
10.00000 5471.300
10.10000 4870.600
10.20000 4809.100
10.30000 4714.400
10.40000 4427.000
10.50000 4626.200
10.60000 4217.200
10.70000 4358.400
10.80000 4307.600
10.90000 4069.200
11.00000 4004.900
11.10000 3920.400
11.20000 3949.000
11.30000 3992.800
11.40000 3746.500
11.50000 3677.900
11.60000 3486.400
11.70000 3432.600
11.80000 3289.200
11.90000 3285.400
12.00000 3329.300
12.10000 3168.400
12.20000 3108.300
12.30000 3200.900
12.40000 3156.100
12.50000 3054.000
12.60000 2954.500
12.70000 2990.400
12.80000 3064.800
12.90000 4291.800
13.00000 3182.400
13.10000 2908.800
13.20000 2722.700
13.30000 2841.300
13.40000 2827.600
13.50000 2672.300
13.60000 2747.800
13.70000 2731.100
13.80000 2575.100
13.90000 2683.500
14.00000 2647.900
14.10000 2717.900
14.20000 2655.500
14.30000 2703.000
14.40000 2724.800
14.50000 2727.800
14.60000 2778.200
14.70000 3555.300
14.80000 3211.700
14.90000 2848.100
15.00000 2848.600
15.10000 2834.100
15.20000 2909.600
15.30000 3195.200
15.40000 4032.000
15.50000 3079.300
15.60000 3279.300
15.70000 3013.300
15.80000 3042.200
15.90000 2914.500
16.00000 2891.500
16.10000 2991.900
16.20000 2879.500
16.30000 2997.900
16.40000 3018.300
16.50000 3025.600
16.60000 3138.300
16.70000 3164.000
16.80000 3202.600
16.90000 3489.100
17.00000 3072.000
17.10000 3281.100
17.20000 3325.400
17.30000 3437.800
17.40000 3282.100
17.50000 3478.900
17.60000 3500.800
17.70000 3985.100
17.80000 6825.600
17.90000 4202.700
18.00000 3997.200
18.10000 4393.300
18.20000 5418.700
18.30000 4749.500
18.40000 4676.300
18.50000 5244.800
18.60000 5420.300
18.70000 5109.800
18.80000 4278.900
18.90000 3815.200
19.00000 3882.900
19.10000 3836.100
19.20000 3810.000
19.30000 3761.200
19.40000 3860.000
19.50000 3867.600
19.60000 4089.400
19.70000 4133.900
19.80000 4584.000
19.90000 4882.300
20.00000 3850.300
20.10000 3794.400
20.20000 3647.100
20.30000 3482.800
20.40000 3435.600
20.50000 3430.000
20.60000 3356.700
20.70000 3185.900
20.80000 3091.100
20.90000 3088.800
21.00000 3092.100
21.10000 2972.900
21.20000 3071.900
21.30000 2777.000
21.40000 2917.000
21.50000 2758.200
21.60000 2687.700
21.70000 2749.900
21.80000 2919.600
21.90000 4950.800
22.00000 2913.700
22.10000 2532.100
22.20000 2461.400
22.30000 2373.600
22.40000 2339.100
22.50000 2382.700
22.60000 2188.600
22.70000 2174.800
22.80000 2023.900
22.90000 2092.000
23.00000 2154.700
23.10000 2125.000
23.20000 2116.500
23.30000 2264.200
23.40000 2356.300
23.50000 2136.600
23.60000 2324.200
23.70000 2729.300
23.80000 4290.400
23.90000 3404.000
24.00000 2605.100
24.10000 2292.200
24.20000 2044.800
24.30000 1897.500
24.40000 1793.600
24.50000 1579.900
24.60000 1588.000
24.70000 1478.900
24.80000 1508.900
24.90000 1498.000
25.00000 1498.400
25.10000 1503.900
25.20000 1347.000
25.30000 1397.000
25.40000 1456.800
25.50000 1619.600
25.60000 1723.400
25.70000 1585.900
25.80000 1586.500
25.90000 1943.600
26.00000 2957.700
26.10000 1862.000
26.20000 1450.400
26.30000 1415.200
26.40000 1298.800
26.50000 1298.000
26.60000 1279.400
26.70000 1286.800
26.80000 1291.900
26.90000 1326.300
27.00000 1243.600
27.10000 1523.800
27.20000 1187.800
27.30000 1190.500
27.40000 1497.400
27.50000 1160.500
27.60000 1142.600
27.70000 1182.900
27.80000 1123.600
27.90000 1105.600
28.00000 1090.000
28.10000 1119.400
28.20000 1132.000
28.30000 1110.900
28.40000 1049.800
28.50000 1116.300
28.60000 1066.000
28.70000 1080.900
28.80000 1085.300
28.90000 1039.500
29.00000 1063.700
29.10000 1084.300
29.20000 994.300
29.30000 1184.400
29.40000 1381.300
29.50000 1926.800
29.60000 2972.300
29.70000 5052.200
29.80000 4066.500
29.90000 3842.000
30.00000 4436.000
30.10000 3322.600
30.20000 2323.400
30.30000 1961.600
30.40000 1722.900
30.50000 1481.300
30.60000 1423.600
30.70000 1418.900
30.80000 1428.400
30.90000 1714.100
31.00000 1978.800
31.10000 2004.200
31.20000 1768.200
31.30000 1701.300
31.40000 1301.300
31.50000 1086.700
31.60000 1038.500
31.70000 966.800
31.80000 965.800
31.90000 929.300
32.00000 1204.300
32.10000 1182.600
32.20000 1241.000
32.30000 1414.000
32.40000 1224.300
32.50000 1185.800
32.60000 1110.200
32.70000 975.700
32.80000 1022.200
32.90000 1031.300
33.00000 1222.100
33.10000 1190.500
33.20000 1061.600
33.30000 940.800
33.40000 893.100
33.50000 896.900
33.60000 886.800
33.70000 877.800
33.80000 891.300
33.90000 812.700
34.00000 753.500
34.10000 809.900
34.20000 795.400
34.30000 815.400
34.40000 770.400
34.50000 821.000
34.60000 799.400
34.70000 758.700
34.80000 758.300
34.90000 826.600
35.00000 796.500
35.10000 840.800
35.20000 758.600
35.30000 738.000
35.40000 750.200
35.50000 720.300
35.60000 640.400
35.70000 699.700
35.80000 705.800
35.90000 657.900
36.00000 717.800
36.10000 712.300
36.20000 733.600
36.30000 753.900
36.40000 719.700
36.50000 753.500
36.60000 747.500
36.70000 838.100
36.80000 864.700
36.90000 773.400
37.00000 643.600
37.10000 661.800
37.20000 724.900
37.30000 755.100
37.40000 850.400
37.50000 865.100
37.60000 774.800
37.70000 839.500
37.80000 662.700
37.90000 624.400
38.00000 684.600
38.10000 636.000
38.20000 678.100
38.30000 732.200
38.40000 639.100
38.50000 560.900
38.60000 506.600
38.70000 513.000
38.80000 458.800
38.90000 506.600
39.00000 491.400
39.10000 510.500
39.20000 478.900
39.30000 470.000
39.40000 516.700
39.50000 640.100
39.60000 894.700
39.70000 831.500
39.80000 638.900
39.90000 582.500
40.00000 599.900
40.10000 542.900
40.20000 493.100
40.30000 464.800
40.40000 501.100
40.50000 482.700
40.60000 424.600
40.70000 447.700
40.80000 464.700
40.90000 471.200
41.00000 421.500
41.10000 362.900
41.20000 401.800
41.30000 418.500
41.40000 396.000
41.50000 359.700
41.60000 411.200
41.70000 366.400
41.80000 405.400
41.90000 424.600
42.00000 410.200
42.10000 395.700
42.20000 415.000
42.30000 375.600
42.40000 387.100
42.50000 389.300
42.60000 378.400
42.70000 381.400
42.80000 421.200
42.90000 497.200
43.00000 483.000
43.10000 460.900
43.20000 584.400
43.30000 944.900
43.40000 869.200
43.50000 501.500
43.60000 444.300
43.70000 428.500
43.80000 448.200
43.90000 478.600
44.00000 488.600
44.10000 559.400
44.20000 516.300
44.30000 481.500
44.40000 426.400
44.50000 505.200
44.60000 559.400
44.70000 576.100
44.80000 429.600
44.90000 361.300
45.00000 348.800
45.10000 376.600
45.20000 322.700
45.30000 369.500
45.40000 497.900
45.50000 634.800
45.60000 611.500
45.70000 470.100
45.80000 418.700
45.90000 393.300
46.00000 396.700
46.10000 377.500
46.20000 320.100
46.30000 324.400
46.40000 337.100
46.50000 319.100
46.60000 301.700
46.70000 293.600
46.80000 282.700
46.90000 331.800
47.00000 333.600
47.10000 353.000
47.20000 311.000
47.30000 323.200
47.40000 330.400
47.50000 341.600
47.60000 334.600
47.70000 280.600
47.80000 338.300
47.90000 385.800
48.00000 373.600
48.10000 513.000
48.20000 483.300
48.30000 561.700
48.40000 544.300
48.50000 565.500
48.60000 683.000
48.70000 932.300
48.80000 890.600
48.90000 767.800
49.00000 646.700
49.10000 632.800
49.20000 551.000
49.30000 512.100
49.40000 451.400
49.50000 473.800
49.60000 462.100
49.70000 486.400
49.80000 498.900
49.90000 406.300
50.00000 391.800
50.10000 347.600
50.20000 320.500
50.30000 326.200
50.40000 300.700
50.50000 335.600
50.60000 302.900
50.70000 364.400
50.80000 379.300
50.90000 457.600
51.00000 448.600
51.10000 385.900
51.20000 449.700
51.30000 413.100
51.40000 410.500
51.50000 412.700
51.60000 432.700
51.70000 418.300
51.80000 403.600
51.90000 400.100
52.00000 452.100
52.10000 430.200
52.20000 429.200
52.30000 499.600
52.40000 472.600
52.50000 402.900
52.60000 447.900
52.70000 451.000
52.80000 466.200
52.90000 477.400
53.00000 497.300
53.10000 507.800
53.20000 554.300
53.30000 606.600
53.40000 549.500
53.50000 539.300
53.60000 587.800
53.70000 647.100
53.80000 594.800
53.90000 596.300
54.00000 789.300
54.10000 1077.600
54.20000 961.700
54.30000 822.200
54.40000 570.800
54.50000 504.700
54.60000 469.400
54.70000 433.600
54.80000 400.300
54.90000 401.300
55.00000 440.700
55.10000 420.300
55.20000 412.100
55.30000 398.700
55.40000 342.400
55.50000 348.700
55.60000 348.100
55.70000 362.000
55.80000 393.200
55.90000 383.400
56.00000 384.700
56.10000 399.400
56.20000 397.800
56.30000 402.400
56.40000 424.500
56.50000 448.600
56.60000 412.800
56.70000 403.600
56.80000 446.000
56.90000 510.500
57.00000 476.600
57.10000 421.800
57.20000 397.200
57.30000 400.600
57.40000 380.600
57.50000 401.500
57.60000 373.600
57.70000 352.300
57.80000 392.700
57.90000 392.300
58.00000 391.000
58.10000 374.900
58.20000 366.300
58.30000 342.700
58.40000 338.900
58.50000 359.900
58.60000 399.300
58.70000 376.700
58.80000 405.300
58.90000 429.700
59.00000 437.900
59.10000 446.900
59.20000 493.700
59.30000 481.200
59.40000 466.100
59.50000 456.200
59.60000 461.700
59.70000 420.900
59.80000 453.500
59.90000 467.100
60.00000 464.500
60.10000 472.100
60.20000 447.700
60.30000 421.300
60.40000 459.000
60.50000 368.300
60.60000 361.900
60.70000 376.400
60.80000 376.200
60.90000 427.800
61.00000 406.000
61.10000 384.700
61.20000 349.300
61.30000 353.400
61.40000 340.400
61.50000 327.200
61.60000 341.500
61.70000 335.300
61.80000 325.100
61.90000 381.000
62.00000 368.000
62.10000 365.200
62.20000 379.100
62.30000 399.400
62.40000 368.900
62.50000 361.600
62.60000 364.800
62.70000 426.600
62.80000 391.000
62.90000 385.100
63.00000 396.200
63.10000 378.900
63.20000 351.300
63.30000 391.900
63.40000 367.900
63.50000 399.000
63.60000 389.600
63.70000 445.500
63.80000 481.800
63.90000 453.000
64.00000 417.900
64.10000 402.100
64.20000 411.600
64.30000 359.600
64.40000 381.500
64.50000 383.500
64.60000 338.900
64.70000 369.200
64.80000 337.600
64.90000 332.400
65.00000 344.500
65.10000 359.700
65.20000 393.200
65.30000 399.700
65.40000 419.100
65.50000 391.400
65.60000 403.300
65.70000 377.200
65.80000 351.600
65.90000 324.400
66.00000 280.500
66.10000 321.200
66.20000 305.700
66.30000 296.800
66.40000 331.800
66.50000 313.300
66.60000 250.900
66.70000 273.300
66.80000 243.800
66.90000 266.900
67.00000 312.200
67.10000 246.700
67.20000 273.700
67.30000 282.200
67.40000 251.300
67.50000 281.900
67.60000 265.100
67.70000 285.900
67.80000 286.300
67.90000 301.700
68.00000 274.300
68.10000 296.600
68.20000 290.600
68.30000 297.200
68.40000 294.400
68.50000 290.200
68.60000 322.300
68.70000 302.900
68.80000 353.200
68.90000 365.500
69.00000 339.200
69.10000 348.100
69.20000 317.000
69.30000 321.100
69.40000 334.500
69.50000 300.300
69.60000 315.100
69.70000 278.400
69.80000 265.600
69.90000 257.300
70.00000 236.000
70.10000 260.700
70.20000 257.300
70.30000 263.600
70.40000 284.500
70.50000 246.200
70.60000 283.900
70.70000 284.900
70.80000 284.900
70.90000 299.100
71.00000 273.100
71.10000 287.800
71.20000 303.400
71.30000 294.100
71.40000 290.600
71.50000 287.700
71.60000 260.800
71.70000 270.900
71.80000 275.600
71.90000 263.900
72.00000 258.800
72.10000 235.000
72.20000 258.200
72.30000 222.300
72.40000 242.900
72.50000 265.400
72.60000 243.500
72.70000 235.500
72.80000 264.700
72.90000 222.400
73.00000 231.800
73.10000 234.200
73.20000 260.600
73.30000 254.500
73.40000 266.200
73.50000 252.700
73.60000 282.300
73.70000 287.100
73.80000 294.400
73.90000 255.300
74.00000 255.800
74.10000 270.200
74.20000 274.200
74.30000 275.400
74.40000 251.200
74.50000 271.800
74.60000 314.900
74.70000 325.100
74.80000 302.900
74.90000 280.800
75.00000 320.100
75.10000 265.500
75.20000 278.300
75.30000 271.000
75.40000 244.800
75.50000 262.100
75.60000 258.100
75.70000 219.500
75.80000 237.800
75.90000 249.300
76.00000 222.600
76.10000 226.800
76.20000 239.500
76.30000 260.000
76.40000 290.200
76.50000 228.000
76.60000 247.400
76.70000 221.500
76.80000 243.200
76.90000 220.100
77.00000 225.300
77.10000 228.300
77.20000 231.400
77.30000 228.100
77.40000 227.400
77.50000 247.900
77.60000 205.100
77.70000 239.600
77.80000 239.800
77.90000 233.000
78.00000 215.500
78.10000 228.900
78.20000 220.000
78.30000 250.000
78.40000 269.200
78.50000 250.100
78.60000 263.000
78.70000 245.100
78.80000 261.800
78.90000 247.200
79.00000 246.400
79.10000 236.400
79.20000 267.800
79.30000 247.600
79.40000 248.000
79.50000 278.000
79.60000 253.000
79.70000 272.900
79.80000 275.000
79.90000 265.500
80.00000 233.200
80.10000 246.100
80.20000 228.100
80.30000 271.500
80.40000 234.300
80.50000 231.500
80.60000 246.000
80.70000 227.500
80.80000 239.700
80.90000 240.100
81.00000 244.800
81.10000 243.600
81.20000 247.400
81.30000 235.700
81.40000 253.900
81.50000 231.300
81.60000 222.300
81.70000 210.300
81.80000 230.300
81.90000 244.100
82.00000 213.800
82.10000 235.600
82.20000 230.300
82.30000 220.300
82.40000 202.800
82.50000 226.300
82.60000 229.000
82.70000 210.900
82.80000 214.100
82.90000 230.500
83.00000 224.900
83.10000 220.000
83.20000 214.100
83.30000 237.700
83.40000 195.400
83.50000 232.100
83.60000 215.500
83.70000 248.400
83.80000 193.800
83.90000 248.600
84.00000 243.800
84.10000 228.000
84.20000 234.300
84.30000 211.100
84.40000 225.600
84.50000 259.100
84.60000 270.800
84.70000 258.700
84.80000 225.500
84.90000 278.600
85.00000 260.300
85.10000 261.500
85.20000 236.800
85.30000 257.700
85.40000 283.200
85.50000 240.000
85.60000 288.000
85.70000 240.900
85.80000 254.200
85.90000 270.600
86.00000 278.100
86.10000 257.500
86.20000 314.300
86.30000 314.700
86.40000 273.700
86.50000 240.700
86.60000 283.200
86.70000 236.700
86.80000 261.700
86.90000 250.300
87.00000 303.000
87.10000 272.300
87.20000 283.900
87.30000 253.500
87.40000 280.800
87.50000 239.300
87.60000 279.000
87.70000 226.500
87.80000 239.900
87.90000 264.400
88.00000 241.400
88.10000 236.700
88.20000 251.100
88.30000 245.500
88.40000 263.500
88.50000 291.500
88.60000 263.600
88.70000 258.100
88.80000 255.900
88.90000 250.400
89.00000 244.900
89.10000 216.000
89.20000 257.700
89.30000 253.700
89.40000 273.400
89.50000 256.500
89.60000 219.700
89.70000 245.800
89.80000 260.000
89.90000 247.800
90.00000 267.800
90.10000 269.300
90.20000 236.500
90.30000 269.500
90.40000 235.200
90.50000 224.500
90.60000 250.400
90.70000 235.800
90.80000 265.000
90.90000 288.900
91.00000 238.100
91.10000 279.800
91.20000 261.600
91.30000 251.900
91.40000 233.200
91.50000 272.600
91.60000 238.200
91.70000 278.300
91.80000 220.800
91.90000 257.200
92.00000 229.400
92.10000 237.100
92.20000 266.500
92.30000 265.700
92.40000 248.000
92.50000 291.000
92.60000 253.700
92.70000 275.900
92.80000 260.200
92.90000 272.000
93.00000 249.400
93.10000 272.700
93.20000 253.900
93.30000 282.400
93.40000 261.000
93.50000 259.900
93.60000 293.200
93.70000 275.800
93.80000 307.300
93.90000 254.500
94.00000 251.000
94.10000 229.600
94.20000 262.600
94.30000 255.700
94.40000 224.100
94.50000 250.600
94.60000 255.200
94.70000 265.700
94.80000 287.800
94.90000 271.200
95.00000 256.400
95.10000 250.300
95.20000 242.700
95.30000 254.900
95.40000 234.600
95.50000 269.200
95.60000 232.800
95.70000 270.700
95.80000 270.900
95.90000 256.600
96.00000 252.300
96.10000 255.900
96.20000 267.700
96.30000 266.300
96.40000 237.700
96.50000 260.200
96.60000 295.100
96.70000 264.600
96.80000 272.900
96.90000 251.900
97.00000 246.100
97.10000 267.800
97.20000 276.500
97.30000 247.200
97.40000 258.800
97.50000 259.400
97.60000 288.200
97.70000 279.400
97.80000 282.700
97.90000 276.300
98.00000 248.000
98.10000 261.700
98.20000 257.000
98.30000 239.300
98.40000 254.400
98.50000 269.300
98.60000 220.100
98.70000 277.300
98.80000 277.000
98.90000 264.100
99.00000 247.900
99.10000 244.100
99.20000 235.600
99.30000 214.500
99.40000 259.000
99.50000 263.900
99.60000 245.800
99.70000 263.600
99.80000 228.400
99.90000 240.300
100 224.600
100.1 253.900
100.2 248.700
100.3 239.300
100.4 230.800
100.5 212.500
100.6 260.100
100.7 275.000
100.8 254.200
100.9 229.600
101 268.200
101.1 283.400
101.2 278.300
101.3 275.800
101.4 292.800
101.5 279.400
101.6 280.000
101.7 300.000
101.8 304.300
101.9 290.400
102 295.800
102.1 264.600
102.2 291.900
102.3 283.100
102.4 258.800
102.5 294.100
102.6 284.200
102.7 299.000
102.8 277.200
102.9 295.300
103 332.100
103.1 320.800
103.2 286.100
103.3 317.400
103.4 288.400
103.5 284.800
103.6 263.600
103.7 268.500
103.8 250.100
103.9 246.000
104 270.700
104.1 295.800
104.2 264.500
104.3 250.400
104.4 233.200
104.5 245.200
104.6 272.500
104.7 284.100
104.8 278.800
104.9 264.300
105 231.600
105.1 265.300
105.2 228.100
105.3 270.700
105.4 225.500
105.5 258.500
105.6 267.400
105.7 231.400
105.8 251.300
105.9 235.800
106 262.600
106.1 263.200
106.2 259.400
106.3 268.700
106.4 232.200
106.5 260.500
106.6 264.400
106.7 252.000
106.8 248.400
106.9 266.000
107 284.100
107.1 239.200
107.2 275.600
107.3 266.300
107.4 264.300
107.5 286.200
107.6 253.700
107.7 256.500
107.8 272.400
107.9 247.400
108 218.100
108.1 238.700
108.2 250.300
108.3 253.600
108.4 229.300
108.5 244.900
108.6 232.900
108.7 248.700
108.8 247.500
108.9 274.800
109 241.500
109.1 242.100
109.2 224.600
109.3 237.400
109.4 243.700
109.5 247.000
109.6 248.400
109.7 243.900
109.8 278.200
109.9 257.300
110 230.300
110.1 227.400
110.2 268.000
110.3 271.000
110.4 236.400
110.5 275.500
110.6 226.700
110.7 257.900
110.8 249.600
110.9 254.900
111 256.200
111.1 247.500
111.2 257.100
111.3 253.600
111.4 263.700
111.5 252.700
111.6 264.500
111.7 243.300
111.8 232.400
111.9 239.800
112 312.400
112.1 251.400
112.2 271.000
112.3 247.100
112.4 271.000
112.5 261.700
112.6 253.600
112.7 271.200
112.8 225.700
112.9 294.500
113 248.500
113.1 272.200
113.2 248.800
113.3 269.500
113.4 293.100
113.5 284.800
113.6 224.100
113.7 225.200
113.8 272.600
113.9 269.700
114 259.200
114.1 258.500
114.2 254.500
114.3 258.900
114.4 242.200
114.5 247.900
114.6 258.500
114.7 259.600
114.8 229.800
114.9 252.900
115 280.000
115.1 256.800
115.2 251.400
115.3 271.600
115.4 246.800
115.5 250.000
115.6 251.000
115.7 242.400
115.8 225.600
115.9 205.800
116 235.700
116.1 229.100
116.2 219.700
116.3 246.400
116.4 229.600
116.5 236.600
116.6 236.100
116.7 220.600
116.8 250.900
116.9 254.700
117 254.000
117.1 219.100
117.2 258.600
117.3 218.800
117.4 221.200
117.5 257.100
117.6 242.800
117.7 230.300
117.8 226.500
117.9 205.200
118 221.700
118.1 228.900
118.2 219.600
118.3 201.300
118.4 223.200
118.5 232.300
118.6 216.900
118.7 228.400
118.8 264.300
118.9 208.100
119 222.800
119.1 212.200
119.2 236.200
119.3 229.500
119.4 221.700
119.5 245.600
119.6 226.900
119.7 222.100
119.8 201.800
119.9 220.700
120 201.400
120.1 221.900
120.2 252.100
120.3 245.000
120.4 235.700
120.5 213.700
120.6 198.700
120.7 241.600
120.8 222.300
120.9 221.500
121 229.000
121.1 254.900
121.2 207.400
121.3 224.300
121.4 255.800
121.5 221.500
121.6 223.200
121.7 217.400
121.8 234.800
121.9 224.100
122 222.200
122.1 256.900
122.2 228.800
122.3 204.800
122.4 205.500
122.5 189.900
122.6 252.900
122.7 232.600
122.8 220.800
122.9 249.700
123 220.300
123.1 242.600
123.2 236.300
123.3 239.100
123.4 250.900
123.5 221.000
123.6 235.800
123.7 218.800
123.8 210.500
123.9 238.100
124 258.300
124.1 239.300
124.2 218.600
124.3 238.400
124.4 208.400
124.5 236.400
124.6 250.900
124.7 252.900
124.8 250.100
124.9 259.300
125 242.600
125.1 222.400
125.2 236.000
125.3 253.400
125.4 227.500
125.5 246.600
125.6 245.100
125.7 255.800
125.8 255.900
125.9 214.100
126 240.300
126.1 250.200
126.2 226.200
126.3 220.700
126.4 253.600
126.5 209.800
126.6 262.900
126.7 254.800
126.8 228.700
126.9 248.100
127 243.100
127.1 231.000
127.2 255.500
127.3 258.700
127.4 214.000
127.5 260.900
127.6 273.100
127.7 228.800
127.8 248.400
127.9 240.200
128 236.900
128.1 242.000
128.2 228.900
128.3 274.200
128.4 244.200
128.5 251.300
128.6 253.900
128.7 249.900
128.8 229.300
128.9 238.500
129 226.500
129.1 232.200
129.2 234.500
129.3 210.000
129.4 237.900
129.5 252.600
129.6 228.200
129.7 201.500
129.8 236.000
129.9 244.300
130 232.100
130.1 252.100
130.2 230.200
130.3 228.000
130.4 246.400
130.5 276.800
130.6 239.100
130.7 238.700
130.8 243.100
130.9 239.100
131 244.400