File: Data/Materials_HUB_Synchrotron_XRD/SJY_165_XRD.xy
10.00000 2633.200
10.10000 2591.400
10.20000 2589.600
10.30000 2559.900
10.40000 2495.100
10.50000 2477.600
10.60000 2287.000
10.70000 2270.100
10.80000 2303.000
10.90000 2062.900
11.00000 2131.500
11.10000 2067.500
11.20000 2096.400
11.30000 1976.100
11.40000 1949.800
11.50000 2026.200
11.60000 1792.000
11.70000 1886.800
11.80000 1798.500
11.90000 1776.100
12.00000 1793.200
12.10000 1686.000
12.20000 1632.500
12.30000 1586.300
12.40000 1671.700
12.50000 1577.500
12.60000 1618.800
12.70000 1587.700
12.80000 1557.800
12.90000 1842.600
13.00000 1801.200
13.10000 1631.800
13.20000 1485.700
13.30000 1378.700
13.40000 1377.600
13.50000 1535.700
13.60000 1582.600
13.70000 1531.200
13.80000 1538.100
13.90000 1366.400
14.00000 1490.400
14.10000 1517.900
14.20000 1424.900
14.30000 1422.400
14.40000 1397.100
14.50000 1432.300
14.60000 1463.000
14.70000 1594.500
14.80000 1663.200
14.90000 1455.400
15.00000 1485.000
15.10000 1426.900
15.20000 1541.700
15.30000 1674.800
15.40000 1750.300
15.50000 1572.600
15.60000 1691.100
15.70000 1560.200
15.80000 1494.700
15.90000 1450.000
16.00000 1537.500
16.10000 1621.500
16.20000 1558.000
16.30000 1641.400
16.40000 1569.200
16.50000 1511.200
16.60000 1663.800
16.70000 1760.800
16.80000 1699.200
16.90000 1667.300
17.00000 1642.400
17.10000 1866.700
17.20000 1681.100
17.30000 1678.500
17.40000 1740.500
17.50000 1839.400
17.60000 2318.400
17.70000 2137.800
17.80000 2924.400
17.90000 2592.600
18.00000 2114.200
18.10000 2393.600
18.20000 2844.000
18.30000 2736.700
18.40000 2600.700
18.50000 2471.000
18.60000 2605.600
18.70000 2446.200
18.80000 2174.200
18.90000 2084.900
19.00000 2027.500
19.10000 1982.200
19.20000 2014.400
19.30000 2055.400
19.40000 2170.400
19.50000 2055.700
19.60000 2083.700
19.70000 2095.400
19.80000 2159.700
19.90000 2547.200
20.00000 2185.500
20.10000 2018.100
20.20000 1878.700
20.30000 1921.300
20.40000 1837.100
20.50000 1737.800
20.60000 1724.400
20.70000 1718.900
20.80000 1820.500
20.90000 1617.600
21.00000 1554.200
21.10000 1621.100
21.20000 1607.000
21.30000 1536.900
21.40000 1551.700
21.50000 1585.900
21.60000 1401.400
21.70000 1437.600
21.80000 1528.300
21.90000 2117.000
22.00000 1588.600
22.10000 1366.800
22.20000 1210.300
22.30000 1284.600
22.40000 1191.500
22.50000 1222.400
22.60000 1188.800
22.70000 1091.500
22.80000 1150.600
22.90000 1136.200
23.00000 1071.600
23.10000 1057.100
23.20000 1017.900
23.30000 1053.200
23.40000 1147.600
23.50000 1044.900
23.60000 1109.400
23.70000 1287.800
23.80000 1503.300
23.90000 1675.900
24.00000 1474.100
24.10000 1180.900
24.20000 1081.000
24.30000 1034.100
24.40000 865.000
24.50000 824.000
24.60000 784.400
24.70000 786.900
24.80000 768.500
24.90000 738.500
25.00000 718.900
25.10000 760.000
25.20000 748.100
25.30000 714.000
25.40000 693.500
25.50000 777.800
25.60000 849.300
25.70000 735.300
25.80000 849.700
25.90000 946.500
26.00000 1324.800
26.10000 1251.500
26.20000 884.600
26.30000 801.700
26.40000 734.400
26.50000 667.500
26.60000 650.700
26.70000 609.400
26.80000 678.300
26.90000 658.000
27.00000 682.400
27.10000 645.600
27.20000 653.200
27.30000 683.600
27.40000 768.600
27.50000 717.200
27.60000 688.300
27.70000 744.900
27.80000 707.400
27.90000 641.100
28.00000 590.600
28.10000 559.500
28.20000 571.100
28.30000 563.900
28.40000 598.900
28.50000 604.200
28.60000 661.200
28.70000 544.900
28.80000 618.400
28.90000 580.700
29.00000 622.600
29.10000 741.800
29.20000 872.000
29.30000 742.800
29.40000 803.600
29.50000 1169.900
29.60000 1472.000
29.70000 1901.400
29.80000 1695.600
29.90000 1816.200
30.00000 1827.700
30.10000 1402.800
30.20000 1183.200
30.30000 1004.500
30.40000 948.900
30.50000 779.600
30.60000 728.200
30.70000 764.400
30.80000 746.700
30.90000 787.200
31.00000 824.000
31.10000 868.200
31.20000 783.700
31.30000 822.300
31.40000 759.600
31.50000 649.100
31.60000 602.400
31.70000 525.500
31.80000 522.400
31.90000 550.200
32.00000 570.700
32.10000 550.700
32.20000 546.200
32.30000 628.700
32.40000 665.000
32.50000 565.100
32.60000 497.600
32.70000 505.800
32.80000 542.200
32.90000 529.300
33.00000 605.800
33.10000 541.900
33.20000 580.400
33.30000 483.100
33.40000 499.500
33.50000 496.500
33.60000 458.500
33.70000 478.400
33.80000 457.100
33.90000 449.600
34.00000 473.800
34.10000 392.200
34.20000 459.500
34.30000 457.100
34.40000 423.500
34.50000 416.600
34.60000 438.700
34.70000 443.500
34.80000 438.400
34.90000 369.000
35.00000 373.400
35.10000 404.300
35.20000 384.400
35.30000 369.800
35.40000 387.700
35.50000 404.700
35.60000 408.800
35.70000 355.200
35.80000 410.700
35.90000 373.100
36.00000 397.900
36.10000 395.700
36.20000 421.600
36.30000 407.700
36.40000 401.400
36.50000 425.300
36.60000 407.200
36.70000 425.200
36.80000 459.500
36.90000 373.600
37.00000 374.200
37.10000 390.700
37.20000 410.200
37.30000 404.100
37.40000 380.000
37.50000 403.500
37.60000 412.700
37.70000 398.200
37.80000 341.300
37.90000 373.100
38.00000 323.800
38.10000 331.600
38.20000 342.000
38.30000 390.500
38.40000 354.800
38.50000 314.900
38.60000 312.700
38.70000 278.300
38.80000 291.600
38.90000 324.800
39.00000 380.000
39.10000 357.500
39.20000 286.200
39.30000 335.300
39.40000 341.000
39.50000 326.900
39.60000 440.700
39.70000 437.000
39.80000 369.800
39.90000 303.600
40.00000 283.800
40.10000 264.500
40.20000 292.700
40.30000 232.700
40.40000 274.300
40.50000 268.500
40.60000 290.500
40.70000 308.000
40.80000 277.100
40.90000 301.700
41.00000 228.600
41.10000 243.900
41.20000 286.800
41.30000 262.700
41.40000 250.800
41.50000 246.900
41.60000 210.000
41.70000 208.600
41.80000 249.600
41.90000 239.400
42.00000 226.900
42.10000 246.200
42.20000 244.800
42.30000 245.600
42.40000 246.300
42.50000 228.100
42.60000 227.900
42.70000 250.200
42.80000 247.800
42.90000 242.900
43.00000 209.600
43.10000 219.500
43.20000 258.700
43.30000 321.000
43.40000 367.500
43.50000 297.400
43.60000 229.000
43.70000 242.100
43.80000 270.100
43.90000 257.000
44.00000 248.400
44.10000 271.200
44.20000 258.400
44.30000 262.000
44.40000 231.900
44.50000 254.100
44.60000 301.800
44.70000 334.000
44.80000 304.800
44.90000 260.300
45.00000 225.000
45.10000 179.300
45.20000 197.600
45.30000 184.400
45.40000 229.700
45.50000 250.400
45.60000 286.900
45.70000 254.600
45.80000 235.800
45.90000 219.600
46.00000 189.400
46.10000 194.400
46.20000 170.100
46.30000 173.700
46.40000 194.500
46.50000 192.900
46.60000 180.400
46.70000 190.400
46.80000 179.000
46.90000 181.600
47.00000 176.300
47.10000 155.600
47.20000 160.100
47.30000 148.000
47.40000 156.100
47.50000 154.800
47.60000 205.900
47.70000 233.900
47.80000 214.900
47.90000 224.300
48.00000 222.900
48.10000 292.300
48.20000 281.200
48.30000 298.600
48.40000 276.700
48.50000 279.200
48.60000 304.500
48.70000 325.000
48.80000 383.800
48.90000 353.200
49.00000 357.700
49.10000 307.500
49.20000 295.100
49.30000 281.000
49.40000 223.900
49.50000 238.800
49.60000 233.700
49.70000 269.900
49.80000 268.300
49.90000 213.800
50.00000 178.800
50.10000 172.700
50.20000 150.700
50.30000 183.100
50.40000 176.000
50.50000 200.900
50.60000 189.200
50.70000 199.700
50.80000 196.500
50.90000 224.300
51.00000 220.300
51.10000 226.600
51.20000 186.600
51.30000 223.400
51.40000 163.200
51.50000 182.300
51.60000 192.500
51.70000 177.900
51.80000 210.300
51.90000 215.500
52.00000 233.400
52.10000 235.700
52.20000 216.500
52.30000 215.100
52.40000 238.500
52.50000 224.500
52.60000 218.100
52.70000 223.300
52.80000 233.900
52.90000 244.200
53.00000 262.400
53.10000 272.600
53.20000 309.500
53.30000 274.400
53.40000 262.700
53.50000 268.200
53.60000 274.200
53.70000 261.500
53.80000 268.500
53.90000 246.600
54.00000 329.400
54.10000 379.700
54.20000 420.200
54.30000 402.900
54.40000 345.800
54.50000 245.900
54.60000 240.800
54.70000 246.700
54.80000 227.500
54.90000 206.900
55.00000 204.300
55.10000 179.900
55.20000 193.900
55.30000 199.300
55.40000 167.500
55.50000 196.200
55.60000 192.400
55.70000 234.200
55.80000 177.200
55.90000 189.200
56.00000 181.600
56.10000 197.900
56.20000 179.100
56.30000 215.000
56.40000 212.300
56.50000 272.800
56.60000 217.500
56.70000 193.500
56.80000 209.600
56.90000 240.700
57.00000 242.300
57.10000 268.900
57.20000 248.700
57.30000 210.700
57.40000 190.300
57.50000 199.100
57.60000 178.800
57.70000 182.900
57.80000 182.900
57.90000 169.700
58.00000 194.200
58.10000 159.500
58.20000 168.100
58.30000 174.100
58.40000 190.200
58.50000 203.400
58.60000 177.000
58.70000 196.600
58.80000 219.400
58.90000 207.200
59.00000 213.000
59.10000 239.500
59.20000 249.200
59.30000 231.500
59.40000 214.200
59.50000 216.900
59.60000 182.100
59.70000 203.800
59.80000 177.900
59.90000 206.400
60.00000 189.800
60.10000 215.100
60.20000 196.100
60.30000 182.700
60.40000 195.200
60.50000 201.100
60.60000 204.700
60.70000 194.500
60.80000 227.000
60.90000 195.000
61.00000 212.000
61.10000 173.900
61.20000 193.500
61.30000 186.300
61.40000 168.300
61.50000 209.300
61.60000 181.100
61.70000 180.600
61.80000 156.400
61.90000 176.700
62.00000 201.500
62.10000 196.400
62.20000 180.300
62.30000 211.500
62.40000 185.000
62.50000 184.200
62.60000 198.100
62.70000 225.300
62.80000 207.300
62.90000 181.800
63.00000 178.700
63.10000 197.300
63.20000 193.400
63.30000 187.600
63.40000 175.200
63.50000 191.900
63.60000 169.200
63.70000 197.800
63.80000 213.300
63.90000 195.300
64.00000 214.200
64.10000 206.100
64.20000 164.700
64.30000 198.100
64.40000 182.300
64.50000 144.800
64.60000 171.600
64.70000 177.400
64.80000 155.000
64.90000 150.100
65.00000 161.400
65.10000 180.700
65.20000 180.800
65.30000 184.600
65.40000 208.800
65.50000 217.800
65.60000 161.000
65.70000 202.200
65.80000 189.400
65.90000 159.400
66.00000 160.400
66.10000 159.300
66.20000 183.900
66.30000 165.500
66.40000 157.000
66.50000 135.500
66.60000 142.800
66.70000 166.200
66.80000 161.300
66.90000 150.400
67.00000 147.300
67.10000 136.700
67.20000 116.700
67.30000 130.700
67.40000 129.900
67.50000 126.700
67.60000 122.000
67.70000 138.800
67.80000 136.100
67.90000 156.700
68.00000 150.700
68.10000 140.800
68.20000 138.500
68.30000 140.100
68.40000 125.600
68.50000 142.400
68.60000 148.100
68.70000 157.300
68.80000 151.900
68.90000 155.100
69.00000 166.600
69.10000 148.700
69.20000 166.400
69.30000 136.300
69.40000 150.800
69.50000 157.700
69.60000 161.500
69.70000 136.400
69.80000 123.900
69.90000 129.300
70.00000 160.200
70.10000 131.300
70.20000 127.200
70.30000 134.800
70.40000 140.700
70.50000 135.300
70.60000 117.200
70.70000 124.800
70.80000 122.800
70.90000 122.900
71.00000 110.500
71.10000 122.800
71.20000 126.500
71.30000 127.700
71.40000 140.800
71.50000 120.600
71.60000 138.100
71.70000 137.300
71.80000 146.600
71.90000 130.800
72.00000 149.500
72.10000 131.400
72.20000 138.500
72.30000 134.800
72.40000 159.900
72.50000 170.300
72.60000 161.100
72.70000 137.100
72.80000 114.900
72.90000 128.600
73.00000 104.700
73.10000 125.500
73.20000 144.200
73.30000 126.000
73.40000 135.900
73.50000 144.000
73.60000 144.000
73.70000 149.600
73.80000 117.500
73.90000 133.100
74.00000 134.900
74.10000 135.800
74.20000 130.600
74.30000 138.500
74.40000 117.500
74.50000 139.600
74.60000 161.700
74.70000 138.500
74.80000 150.400
74.90000 136.500
75.00000 138.500
75.10000 133.800
75.20000 119.200
75.30000 129.400
75.40000 123.400
75.50000 140.300
75.60000 148.800
75.70000 162.000
75.80000 123.900
75.90000 136.800
76.00000 137.300
76.10000 121.900
76.20000 132.200
76.30000 129.400
76.40000 118.400
76.50000 112.000
76.60000 118.700
76.70000 133.300
76.80000 122.300
76.90000 120.900
77.00000 147.100
77.10000 115.300
77.20000 130.100
77.30000 110.300
77.40000 110.700
77.50000 138.500
77.60000 131.800
77.70000 113.400
77.80000 119.900
77.90000 132.200
78.00000 136.900
78.10000 134.800
78.20000 131.200
78.30000 123.900
78.40000 124.800
78.50000 123.800
78.60000 113.200
78.70000 142.400
78.80000 130.000
78.90000 120.100
79.00000 114.500
79.10000 120.600
79.20000 113.700
79.30000 122.800
79.40000 119.800
79.50000 124.600
79.60000 131.900
79.70000 129.900
79.80000 115.600
79.90000 133.200
80.00000 125.700
80.10000 132.500
80.20000 125.200
80.30000 120.100
80.40000 134.400
80.50000 99.700
80.60000 111.300
80.70000 129.600
80.80000 131.600
80.90000 114.400
81.00000 104.800
81.10000 125.100
81.20000 124.900
81.30000 125.800
81.40000 120.800
81.50000 93.100
81.60000 108.200
81.70000 136.600
81.80000 130.700
81.90000 109.600
82.00000 106.300
82.10000 109.000
82.20000 126.200
82.30000 91.100
82.40000 112.500
82.50000 106.100
82.60000 126.300
82.70000 115.900
82.80000 94.100
82.90000 114.500
83.00000 120.300
83.10000 103.700
83.20000 116.700
83.30000 108.300
83.40000 97.900
83.50000 119.800
83.60000 109.300
83.70000 119.600
83.80000 117.000
83.90000 108.800
84.00000 110.900
84.10000 128.100
84.20000 106.700
84.30000 120.600
84.40000 107.600
84.50000 124.100
84.60000 124.500
84.70000 120.600
84.80000 122.500
84.90000 123.800
85.00000 114.000
85.10000 126.200
85.20000 119.100
85.30000 116.000
85.40000 125.300
85.50000 128.900
85.60000 136.000
85.70000 136.900
85.80000 126.800
85.90000 132.500
86.00000 134.600
86.10000 126.600
86.20000 132.300
86.30000 126.300
86.40000 135.100
86.50000 119.800
86.60000 132.800
86.70000 118.400
86.80000 131.600
86.90000 142.300
87.00000 131.600
87.10000 130.500
87.20000 93.700
87.30000 113.300
87.40000 129.400
87.50000 100.800
87.60000 116.700
87.70000 124.300
87.80000 119.600
87.90000 132.700
88.00000 134.500
88.10000 125.500
88.20000 128.800
88.30000 135.100
88.40000 112.100
88.50000 144.000
88.60000 132.700
88.70000 109.700
88.80000 110.700
88.90000 113.600
89.00000 125.300
89.10000 100.800
89.20000 127.600
89.30000 135.100
89.40000 118.700
89.50000 135.000
89.60000 117.600
89.70000 112.600
89.80000 132.200
89.90000 134.700
90.00000 122.300
90.10000 119.000
90.20000 112.700
90.30000 133.700
90.40000 118.700
90.50000 135.200
90.60000 138.500
90.70000 117.200
90.80000 116.100
90.90000 126.500
91.00000 95.200
91.10000 127.800
91.20000 119.600
91.30000 121.800
91.40000 131.900
91.50000 130.600
91.60000 135.000
91.70000 123.100
91.80000 133.100
91.90000 127.300
92.00000 131.200
92.10000 120.800
92.20000 145.700
92.30000 113.600
92.40000 104.600
92.50000 111.000
92.60000 123.300
92.70000 135.200
92.80000 119.500
92.90000 127.000
93.00000 137.100
93.10000 130.900
93.20000 108.400
93.30000 147.600
93.40000 108.500
93.50000 132.200
93.60000 142.600
93.70000 144.500
93.80000 128.500
93.90000 136.100
94.00000 141.100
94.10000 103.700
94.20000 129.400
94.30000 141.800
94.40000 139.800
94.50000 127.900
94.60000 100.200
94.70000 109.700
94.80000 114.200
94.90000 118.900
95.00000 134.000
95.10000 114.800
95.20000 121.300
95.30000 125.000
95.40000 122.900
95.50000 139.900
95.60000 131.800
95.70000 156.000
95.80000 132.600
95.90000 101.200
96.00000 128.600
96.10000 113.100
96.20000 97.000
96.30000 112.000
96.40000 110.600
96.50000 118.800
96.60000 124.000
96.70000 120.400
96.80000 135.900
96.90000 125.300
97.00000 142.300
97.10000 118.400
97.20000 109.600
97.30000 122.100
97.40000 117.500
97.50000 135.000
97.60000 127.800
97.70000 126.600
97.80000 117.200
97.90000 130.300
98.00000 142.600
98.10000 135.300
98.20000 127.400
98.30000 124.600
98.40000 110.400
98.50000 112.400
98.60000 106.100
98.70000 120.000
98.80000 110.800
98.90000 138.800
99.00000 115.600
99.10000 117.100
99.20000 119.800
99.30000 133.600
99.40000 119.300
99.50000 111.100
99.60000 114.000
99.70000 112.900
99.80000 118.900
99.90000 140.800
100 120.700
100.1 117.900
100.2 127.100
100.3 144.200
100.4 143.200
100.5 155.400
100.6 127.500
100.7 150.200
100.8 147.400
100.9 151.400
101 133.700
101.1 125.100
101.2 140.200
101.3 147.300
101.4 129.700
101.5 138.400
101.6 130.400
101.7 144.700
101.8 143.400
101.9 124.900
102 130.500
102.1 127.400
102.2 111.600
102.3 108.900
102.4 121.900
102.5 132.100
102.6 134.700
102.7 136.800
102.8 151.700
102.9 137.300
103 123.200
103.1 137.600
103.2 143.600
103.3 142.800
103.4 151.800
103.5 135.800
103.6 152.300
103.7 118.500
103.8 128.900
103.9 118.000
104 131.400
104.1 109.400
104.2 109.800
104.3 122.700
104.4 114.800
104.5 126.400
104.6 112.700
104.7 129.700
104.8 148.900
104.9 130.200
105 123.700
105.1 115.600
105.2 125.200
105.3 116.800
105.4 110.500
105.5 115.400
105.6 115.100
105.7 117.100
105.8 119.400
105.9 104.200
106 104.700
106.1 125.200
106.2 113.000
106.3 107.700
106.4 118.400
106.5 122.000
106.6 111.600
106.7 129.600
106.8 125.700
106.9 123.700
107 142.800
107.1 107.000
107.2 126.200
107.3 121.200
107.4 141.500
107.5 129.000
107.6 110.700
107.7 165.500
107.8 138.100
107.9 114.500
108 133.900
108.1 143.400
108.2 115.700
108.3 117.400
108.4 116.800
108.5 117.500
108.6 123.700
108.7 145.000
108.8 142.600
108.9 120.500
109 131.200
109.1 106.800
109.2 127.500
109.3 119.500
109.4 128.100
109.5 115.400
109.6 117.900
109.7 138.900
109.8 144.800
109.9 106.900
110 95.200
110.1 114.300
110.2 114.500
110.3 124.800
110.4 110.800
110.5 143.100
110.6 116.300
110.7 114.600
110.8 121.500
110.9 120.600
111 119.200
111.1 119.100
111.2 103.600
111.3 124.900
111.4 111.500
111.5 100.600
111.6 122.100
111.7 116.600
111.8 115.500
111.9 102.400
112 118.500
112.1 127.800
112.2 138.000
112.3 94.300
112.4 130.800
112.5 108.000
112.6 141.700
112.7 124.200
112.8 127.600
112.9 115.500
113 114.600
113.1 137.500
113.2 144.000
113.3 116.900
113.4 128.800
113.5 130.100
113.6 112.900
113.7 110.000
113.8 107.400
113.9 104.400
114 116.600
114.1 109.800
114.2 104.500
114.3 125.900
114.4 122.000
114.5 118.400
114.6 125.100
114.7 138.500
114.8 130.400
114.9 110.900
115 113.000
115.1 115.600
115.2 126.700
115.3 125.400
115.4 122.400
115.5 121.200
115.6 116.400
115.7 116.300
115.8 114.400
115.9 119.000
116 102.900
116.1 97.700
116.2 100.700
116.3 123.800
116.4 111.800
116.5 121.400
116.6 121.600
116.7 116.300
116.8 122.400
116.9 107.400
117 106.500
117.1 111.500
117.2 102.200
117.3 108.300
117.4 103.900
117.5 115.700
117.6 113.700
117.7 127.200
117.8 111.400
117.9 115.100
118 101.700
118.1 99.600
118.2 112.500
118.3 128.100
118.4 102.100
118.5 110.800
118.6 110.600
118.7 89.000
118.8 99.600
118.9 100.300
119 111.900
119.1 136.500
119.2 83.400
119.3 106.000
119.4 130.900
119.5 113.600
119.6 112.400
119.7 119.100
119.8 102.500
119.9 106.900
120 101.400
120.1 117.100
120.2 112.400
120.3 111.100
120.4 107.200
120.5 88.500
120.6 113.900
120.7 100.600
120.8 104.600
120.9 109.200
121 117.800
121.1 102.800
121.2 112.300
121.3 119.000
121.4 119.800
121.5 131.000
121.6 96.400
121.7 109.800
121.8 115.600
121.9 89.800
122 139.000
122.1 91.100
122.2 102.700
122.3 120.300
122.4 87.500
122.5 98.200
122.6 84.100
122.7 112.000
122.8 110.100
122.9 94.100
123 94.500
123.1 117.900
123.2 111.200
123.3 125.700
123.4 120.800
123.5 89.400
123.6 108.300
123.7 121.900
123.8 117.300
123.9 104.200
124 98.500
124.1 108.400
124.2 105.900
124.3 106.700
124.4 116.400
124.5 124.700
124.6 112.600
124.7 107.700
124.8 125.000
124.9 108.900
125 99.000
125.1 104.700
125.2 101.400
125.3 102.000
125.4 93.100
125.5 125.000
125.6 120.800
125.7 117.900
125.8 99.700
125.9 113.300
126 107.900
126.1 89.600
126.2 111.100
126.3 117.600
126.4 125.900
126.5 91.500
126.6 123.400
126.7 114.300
126.8 96.100
126.9 120.500
127 111.200
127.1 115.200
127.2 98.700
127.3 100.600
127.4 114.300
127.5 119.700
127.6 113.800
127.7 127.500
127.8 108.100
127.9 105.800
128 107.200
128.1 97.800
128.2 118.700
128.3 121.300
128.4 99.400
128.5 100.000
128.6 112.800
128.7 99.900
128.8 116.600
128.9 119.600
129 116.200
129.1 107.400
129.2 115.500
129.3 119.600
129.4 113.200
129.5 108.900
129.6 102.600
129.7 96.100
129.8 107.700
129.9 112.400
130 109.200
130.1 103.000
130.2 103.100
130.3 119.900
130.4 116.400
130.5 120.200
130.6 114.700
130.7 112.100
130.8 104.200
130.9 105.400
131 109.800